"# PDIoT walking data"
"# Start time: 20191021T173041"
"# Group: NaN"
"# Subject: http://192.168.105.11:5000/index?data="
"# Activity type: NaN"
"# Sensor position: NaN"
"# Side of body: Left"
"# Sensor mounting: Body"
"# Number of steps: 10"
"# Notes: "
""
"timestamp","seq","accel_x","accel_y","accel_z","gyro_x","gyro_y","gyro_z"
"1571675441175","0","-0.26367188","0.984375","-0.046875","-17.84375","-18.15625","2.125"
"1571675441264","1","-0.17578125","0.984375","0.060546875","-17.03125","9.4375","-5.875"
"1571675441354","2","-0.18359375","0.98339844","0.016601562","-8.3125","0.71875","4.5625"
"1571675441474","3","-0.18457031","0.9589844","0.08203125","-2.03125","2.4375","2.84375"
"1571675441564","4","-0.19335938","0.95703125","0.087890625","-8.125","-0.0625","0.28125"
"1571675441654","5","-0.16015625","0.96484375","0.06933594","-3.4375","1.6875","1.3125"
"1571675441774","6","-0.16210938","0.9707031","0.07421875","-1.65625","-1.1875","2.0"
"1571675441863","7","-0.19238281","0.9501953","0.087890625","-1.71875","-0.375","1.21875"
"1571675441954","8","-0.18261719","0.96191406","0.076171875","-1.65625","1.3125","1.6875"
"1571675442074","9","-0.16796875","0.9628906","0.091796875","-1.71875","2.0","0.90625"
"1571675442164","10","-0.16308594","0.95996094","0.08105469","-1.34375","2.0","0.84375"
"1571675442254","11","-0.17382812","0.97265625","0.09472656","-1.1875","1.3125","1.3125"
"1571675442374","12","-0.16992188","0.9609375","0.08886719","0.0","0.65625","1.5625"
"1571675442464","13","-0.17578125","0.9589844","0.099609375","-0.25","0.84375","1.09375"
"1571675442554","14","-0.17089844","0.95703125","0.09375","0.03125","1.75","1.15625"
"1571675442674","15","-0.17480469","0.9707031","0.09277344","-0.125","2.375","0.78125"
"1571675442764","16","-0.16113281","0.96777344","0.09863281","-0.25","2.4375","0.65625"
"1571675442854","17","-0.16992188","0.9580078","0.08105469","-0.25","2.0625","0.40625"
"1571675442975","18","-0.16894531","0.9628906","0.083984375","-0.0625","2.25","0.65625"
"1571675443065","19","-0.18457031","0.9609375","0.09472656","-0.5625","1.75","0.71875"
"1571675443154","20","-0.17285156","0.9667969","0.10058594","-1.25","1.15625","0.15625"
"1571675443275","21","-0.16796875","0.96191406","0.091796875","0.09375","2.1875","0.71875"
"1571675443365","22","-0.15625","0.9511719","0.099609375","-0.3125","1.375","0.65625"
"1571675443455","23","-0.17871094","0.9628906","0.095703125","-0.8125","1.5625","0.15625"
"1571675443575","24","-0.17089844","0.95410156","0.10546875","-0.9375","1.6875","0.15625"
"1571675443664","25","-0.18359375","0.95703125","0.095703125","-0.625","3.15625","0.53125"
"1571675443754","26","-0.17773438","0.9628906","0.09765625","-0.4375","2.4375","0.90625"
"1571675443874","27","-0.17871094","0.9589844","0.0859375","-0.375","1.5625","0.71875"
"1571675443964","28","-0.17675781","0.95214844","0.1015625","-0.125","1.75","0.40625"
"1571675444055","29","-0.16699219","0.96777344","0.09667969","-0.25","1.5625","0.34375"
"1571675444175","30","-0.16796875","0.96191406","0.109375","-0.3125","1.5","0.21875"
"1571675444265","31","-0.171875","0.95703125","0.10449219","-0.25","1.9375","0.28125"
"1571675444355","32","-0.1796875","0.9580078","0.08300781","-0.0625","1.28125","0.53125"
"1571675444474","33","-0.1796875","0.95703125","0.103515625","0.0","1.5","0.65625"
"1571675444565","34","-0.16992188","0.95703125","0.10253906","0.0","1.625","0.84375"
"1571675444655","35","-0.17089844","0.9609375","0.109375","0.0","1.625","0.71875"
"1571675444775","36","-0.17382812","0.95410156","0.09277344","0.46875","2.0625","0.84375"
"1571675444864","37","-0.17089844","0.9589844","0.103515625","0.46875","2.5","0.84375"
"1571675444954","38","-0.17675781","0.95996094","0.09277344","0.78125","2.0","1.09375"
"1571675445073","39","-0.16796875","0.96191406","0.10449219","0.53125","1.375","1.625"
"1571675445165","40","-0.17089844","0.96191406","0.10058594","0.65625","1.6875","1.3125"
"1571675445255","41","-0.16992188","0.9638672","0.09863281","0.28125","2.1875","1.03125"
"1571675445374","42","-0.16992188","0.95996094","0.083984375","0.65625","2.25","1.4375"
"1571675445465","43","-0.16699219","0.9589844","0.09375","0.96875","2.90625","1.5"
"1571675445555","44","-0.16503906","0.9667969","0.07910156","0.78125","3.03125","1.03125"
"1571675445675","45","-0.16894531","0.9580078","0.08203125","0.34375","2.96875","1.03125"
"1571675445765","46","-0.15136719","0.95410156","0.08105469","1.09375","3.53125","1.3125"
"1571675445855","47","-0.16113281","0.9716797","0.068359375","-0.9375","1.03125","0.78125"
"1571675446064","48","-0.16796875","0.9580078","0.080078125","-0.75","1.375","1.15625"
"1571675446069","49","-0.15722656","0.95996094","0.09667969","-1.59375","-0.0625","0.78125"
"1571675446154","50","-0.15722656","0.9589844","0.08691406","-2.625","-0.25","-0.25"
"1571675446274","51","-0.16015625","0.9628906","0.091796875","-1.59375","1.15625","0.65625"
"1571675446364","52","-0.15136719","0.96484375","0.095703125","-2.09375","0.59375","0.46875"
"1571675446454","53","-0.16210938","0.95703125","0.09277344","-1.90625","2.375","0.09375"
"1571675446575","54","-0.15625","0.97265625","0.091796875","-2.625","0.65625","0.09375"
"1571675446665","55","-0.16503906","0.9628906","0.109375","-0.8125","1.3125","1.03125"
"1571675446755","56","-0.1640625","0.9667969","0.12695312","-0.4375","2.375","0.84375"
"1571675446874","57","-0.16699219","0.953125","0.11035156","-0.125","1.9375","1.4375"
"1571675446964","58","-0.18554688","0.9794922","0.07421875","-1.65625","-5.15625","0.34375"
"1571675447055","59","-0.19628906","0.9511719","0.08300781","12.5625","-9.78125","-2.09375"
"1571675447145","60","-0.09765625","0.9667969","-0.0146484375","-12.78125","8.96875","1.4375"
"1571675447263","61","-0.13574219","0.9667969","0.087890625","-13.875","0.90625","-2.03125"
"1571675447354","62","-0.14355469","0.9628906","0.11328125","-16.125","-1.84375","3.40625"
"1571675447444","63","-0.103515625","0.9794922","0.1328125","-11.25","-2.21875","0.21875"
"1571675447565","64","-0.16210938","0.96972656","0.2421875","-18.9375","23.3125","-1.3125"
"1571675447654","65","-0.033203125","0.9941406","0.19042969","-10.5625","55.71875","0.0"
"1571675447745","66","-0.052734375","0.9121094","0.18945312","-18.25","4.375","-9.90625"
"1571675447865","67","-0.18554688","0.9355469","0.18652344","-25.65625","14.03125","-25.09375"
"1571675447954","68","0.037109375","1.1015625","0.24023438","-25.09375","-3.1875","-40.1875"
"1571675448076","69","0.14160156","1.1181641","0.09765625","25.4375","-17.84375","13.40625"
"1571675448164","70","-0.2626953","0.8642578","-0.18359375","133.84375","61.03125","75.65625"
"1571675448253","71","-0.20703125","1.4580078","0.3095703","119.78125","115.53125","98.0625"
"1571675448344","72","0.15429688","1.125","-0.10644531","54.71875","-75.28125","115.21875"
"1571675448464","73","-0.4169922","0.55566406","0.0859375","29.71875","-93.59375","42.78125"
"1571675448554","74","0.13378906","0.6376953","-0.23828125","-28.34375","-47.0","-27.0"
"1571675448644","75","0.75097656","1.9492188","-0.8486328","1.5625","-51.90625","13.03125"
"1571675448764","76","-0.27734375","1.4560547","0.2421875","4.0625","-134.34375","-36.28125"
"1571675448854","77","-0.28710938","0.97753906","0.328125","-89.96875","36.84375","-74.125"
"1571675448944","78","0.068359375","0.9794922","0.025390625","-63.125","121.5","-35.96875"
"1571675449064","79","0.0625","0.95214844","0.21582031","-33.9375","3.28125","-18.3125"
"1571675449155","80","-0.08300781","0.8613281","0.2109375","-32.4375","6.75","-18.15625"
"1571675449244","81","-0.26660156","0.9716797","0.2685547","-37.96875","61.25","-22.90625"
"1571675449364","82","0.2548828","1.3505859","0.34375","-16.0","-23.28125","-44.21875"
"1571675449454","83","-0.15820312","0.7949219","-0.39941406","183.40625","111.125","99.03125"
"1571675449544","84","-0.23535156","1.5458984","0.31933594","102.9375","-3.5","118.625"
"1571675449694","85","-0.091796875","0.9589844","-0.024414062","40.75","-80.71875","102.9375"
"1571675449755","86","-0.49609375","0.50097656","0.041015625","17.25","-95.0","33.3125"
"1571675449843","87","0.39648438","0.90722656","-0.48046875","-52.75","-9.40625","-39.5625"
"1571675449964","88","0.23339844","1.1865234","-0.09863281","0.03125","-45.1875","36.96875"
"1571675450054","89","-0.0029296875","0.9560547","-0.0087890625","-21.3125","31.1875","-31.25"
"1571675450144","90","-0.032226562","1.1943359","0.40625","-75.28125","-60.4375","-71.96875"
"1571675450264","91","-0.030273438","0.9033203","0.07421875","-88.09375","44.71875","-5.9375"
"1571675450354","92","-0.016601562","0.8535156","0.16210938","-33.15625","26.96875","-24.3125"
"1571675450444","93","-0.13671875","0.8671875","0.21191406","-50.75","46.625","-34.0"
"1571675450564","94","-0.0029296875","1.1181641","0.2998047","0.96875","38.375","-22.53125"
"1571675450654","95","0.42285156","1.0986328","-0.3203125","82.1875","77.3125","40.5"
"1571675450744","96","-0.35546875","1.4648438","0.076171875","119.84375","-22.125","164.53125"
"1571675450864","97","0.057617188","0.8310547","-0.18652344","-28.65625","92.21875","112.78125"
"1571675450954","98","-0.28320312","0.54589844","0.22265625","36.375","-183.0","53.15625"
"1571675451044","99","-0.15527344","0.5888672","-0.32910156","-56.84375","-23.40625","-40.71875"
"1571675451164","100","1.0673828","1.8144531","-0.6123047","-16.4375","-52.03125","4.3125"
"1571675451254","101","-0.96191406","2.0","-1.3935547","-178.71875","-187.09375","-80.53125"
"1571675451344","102","-0.53222656","0.79296875","0.18945312","-31.9375","100.9375","-43.78125"
"1571675451464","103","0.14453125","0.95996094","0.421875","-84.84375","10.40625","-73.6875"
"1571675451554","104","-0.09667969","0.9355469","-0.20996094","24.34375","201.78125","-5.03125"
"1571675451644","105","-0.0703125","0.82714844","0.28027344","-16.9375","42.46875","-14.125"
"1571675451764","106","-0.19335938","1.0673828","0.16992188","-29.0625","-32.4375","-46.34375"
"1571675451854","107","0.14648438","1.3994141","0.28222656","48.6875","-129.03125","-55.3125"
"1571675451974","108","-0.028320312","0.86328125","-0.022460938","191.625","-39.875","56.0"
"1571675452063","109","0.21679688","1.4228516","0.75683594","194.5625","-200.5625","74.375"
"1571675452154","110","-0.25","0.99316406","0.5986328","25.5625","-38.59375","106.625"
"1571675452243","111","-0.3798828","1.0517578","0.05078125","21.09375","-274.5625","60.65625"
"1571675452363","112","-0.30371094","0.74121094","-0.16308594","-12.40625","-118.84375","43.6875"
"1571675452454","113","0.7832031","1.0048828","-0.46191406","-18.625","-98.46875","20.1875"
"1571675452544","114","-0.3955078","0.7871094","0.12988281","-47.5625","-84.90625","22.1875"
"1571675452664","115","-0.16992188","0.7314453","-0.1640625","-34.9375","43.25","-37.25"
"1571675452754","116","0.12695312","1.0419922","0.46679688","-13.3125","-231.28125","-25.71875"
"1571675452844","117","-0.51953125","0.890625","-0.6298828","-34.4375","9.3125","-14.90625"
"1571675453054","118","-0.053710938","0.9736328","0.099609375","-34.8125","40.15625","-10.40625"
"1571675453056","119","-0.080078125","0.9765625","0.076171875","-33.78125","-28.6875","-41.53125"
"1571675453144","120","-0.17382812","1.0927734","0.06640625","23.0","5.0625","22.5"
"1571675453264","121","0.53808594","1.1142578","0.02734375","70.46875","-103.34375","12.75"
"1571675453354","122","-0.060546875","1.4199219","0.40527344","144.09375","-224.75","121.5"
"1571675453444","123","-0.2265625","0.75683594","-0.3623047","-19.1875","-0.4375","83.53125"
"1571675453564","124","-0.25390625","0.43945312","-0.048828125","-14.84375","-71.625","24.28125"
"1571675453654","125","0.038085938","0.59375","-0.07421875","-88.21875","-59.78125","-48.53125"
"1571675453744","126","0.053710938","0.70410156","-0.296875","-29.1875","-123.0625","-27.1875"
"1571675453834","127","0.15234375","1.3486328","-0.08300781","-58.5","-37.96875","-3.3125"
"1571675453954","128","-0.40820312","1.6279297","0.12988281","51.5625","-119.9375","17.75"
"1571675454044","129","-0.15136719","1.0361328","0.06542969","-64.96875","58.28125","-21.1875"
"1571675454253","130","0.001953125","0.5234375","-0.37109375","49.25","47.71875","-2.625"
"1571675454254","131","0.10644531","0.38476562","0.11621094","73.34375","-16.5","0.96875"
"1571675454344","132","0.23046875","1.8925781","-0.09863281","109.84375","-48.28125","137.5"
"1571675454434","133","-0.0146484375","0.99316406","-0.44726562","-28.03125","66.625","26.28125"
"1571675454554","134","-0.24804688","0.359375","-0.119140625","-48.40625","-68.6875","-76.75"
"1571675454644","135","0.061523438","0.51660156","-0.18945312","-62.15625","-128.0","-86.25"
"1571675454734","136","-0.10546875","0.44628906","-0.7128906","-69.15625","-37.78125","-21.25"
"1571675454854","137","-0.16503906","1.9599609","0.18359375","25.625","72.0625","53.28125"
"1571675454944","138","-0.12695312","1.0859375","0.38476562","-98.53125","24.59375","-21.125"
"1571675455065","139","-0.03125","0.7734375","-0.45703125","44.96875","132.96875","-22.84375"
"1571675455154","140","0.41992188","0.35253906","-0.072265625","51.25","97.40625","9.125"
"1571675455244","141","-0.038085938","0.25976562","-0.19042969","113.09375","31.71875","29.71875"
"1571675455334","142","-0.021484375","2.0","-0.18261719","94.21875","48.09375","149.75"
"1571675455454","143","-9.765625E-4","1.0673828","-0.34375","-9.21875","62.0625","30.6875"
"1571675455545","144","-0.24902344","0.4267578","-0.14453125","-34.25","-63.125","-50.1875"
"1571675455634","145","-0.021484375","0.64160156","-0.08203125","-90.15625","-49.75","-103.71875"
"1571675455753","146","0.30273438","0.7714844","-0.7783203","-84.0","64.6875","-19.71875"
"1571675455844","147","-0.26171875","2.0","-0.484375","-6.1875","139.875","54.0"
"1571675455934","148","-0.044921875","1.4570312","0.3642578","-20.34375","0.71875","-21.25"
"1571675456054","149","-0.17480469","0.6738281","-0.6328125","-7.09375","111.8125","1.5"
"1571675456147","150","0.22558594","0.26367188","-0.0078125","57.40625","42.28125","2.0625"
"1571675456234","151","0.13867188","0.96777344","-0.5517578","164.84375","41.90625","160.625"
"1571675456354","152","-0.46875","2.0","-0.06542969","54.25","46.6875","95.6875"
"1571675456444","153","0.028320312","0.7890625","-0.3515625","-85.90625","26.53125","-61.34375"
"1571675456534","154","0.2919922","0.8095703","-0.5410156","-181.40625","-27.40625","-97.65625"
"1571675456654","155","0.08886719","0.5292969","-0.61035156","-74.40625","-28.9375","-41.15625"
"1571675456745","156","0.049804688","1.640625","0.6386719","-5.25","-130.3125","4.875"
"1571675456833","157","-0.034179688","1.5751953","0.13769531","3.46875","10.1875","-2.34375"
"1571675456953","158","-0.29882812","0.9794922","0.12890625","-50.75","55.78125","-25.15625"
"1571675457044","159","0.2265625","0.44628906","0.04296875","-10.6875","-50.90625","-26.0625"
"1571675457134","160","0.38964844","0.6738281","-0.10253906","57.46875","39.34375","25.6875"
"1571675457254","161","0.38476562","1.2695312","-0.35742188","106.625","55.59375","64.125"
"1571675457344","162","-0.07910156","1.5009766","0.024414062","69.0625","-85.71875","110.15625"
"1571675457434","163","-0.39941406","0.6308594","-0.19433594","-23.34375","-50.0625","-9.71875"
"1571675457554","164","-0.20410156","0.26367188","0.034179688","-55.1875","-80.34375","-83.15625"
"1571675457644","165","0.0068359375","0.8779297","-0.12109375","-145.84375","-52.5625","-67.53125"
"1571675457734","166","-0.0859375","2.0","-1.3193359","-55.125","74.75","22.625"
"1571675457854","167","-0.10546875","1.1787109","0.18359375","9.8125","16.21875","-1.125"
"1571675457944","168","-0.24023438","0.8964844","0.20214844","-55.0625","51.125","-34.75"
"1571675458034","169","0.3486328","0.71191406","-0.19628906","-15.03125","73.21875","-19.59375"
"1571675458154","170","-0.14550781","0.54296875","-0.041015625","54.0625","24.46875","19.9375"
"1571675458244","171","0.3076172","1.1113281","-0.2265625","108.03125","188.8125","65.0625"
"1571675458334","172","-0.5722656","1.9404297","-0.32910156","70.125","-75.9375","136.8125"
"1571675458454","173","-0.14257812","0.9091797","-0.2548828","-43.15625","-5.625","4.3125"
"1571675458544","174","-0.39453125","0.33496094","0.03125","-24.96875","-109.5625","-83.21875"
"1571675458634","175","0.45703125","0.29882812","-1.0039062","-206.0","-85.65625","-77.96875"
"1571675458754","176","0.038085938","1.6513672","-0.81640625","-39.8125","33.84375","40.75"
"1571675458844","177","0.15820312","1.8046875","0.5175781","6.5","-95.21875","-12.71875"
"1571675458934","178","-0.29101562","1.0048828","0.16796875","-86.8125","79.8125","-20.21875"
"1571675459054","179","0.055664062","0.5800781","-0.056640625","-39.875","15.5","-37.75"
"1571675459144","180","0.20410156","0.5214844","-0.2919922","52.59375","87.75","32.15625"
"1571675459234","181","0.055664062","0.99902344","-0.5361328","103.75","157.21875","94.40625"
"1571675459354","182","-0.0078125","1.7207031","-0.09277344","127.125","-188.8125","118.9375"
"1571675459444","183","-0.06640625","1.0078125","-0.32714844","-49.9375","24.40625","13.59375"
"1571675459534","184","-0.14453125","0.31640625","-0.018554688","-71.90625","-69.59375","-117.625"
"1571675459656","185","-0.029296875","0.52441406","-0.10058594","-86.9375","-134.46875","-75.34375"
"1571675459744","186","-0.17089844","0.75","-0.49316406","-13.1875","7.75","2.5625"
"1571675459835","187","-0.078125","1.2822266","0.22265625","-9.59375","163.5","23.125"
"1571675459955","188","-0.111328125","1.1689453","0.15332031","-33.46875","-60.9375","-33.9375"
"1571675460044","189","-0.2919922","0.55371094","-0.05859375","-36.03125","78.53125","-23.15625"
"1571675460135","190","0.4453125","0.5449219","-0.10644531","3.78125","6.03125","-22.59375"
"1571675460255","191","0.18652344","0.5595703","-0.10644531","100.03125","-52.8125","39.21875"
"1571675460344","192","0.4970703","1.5322266","-0.078125","98.875","128.65625","102.65625"
"1571675460434","193","0.140625","1.5029297","-0.2265625","-2.625","-121.59375","85.75"
"1571675460554","194","-0.23925781","0.6113281","-0.23339844","-20.78125","-189.84375","17.625"
"1571675460644","195","-0.5175781","0.29882812","-0.0146484375","-39.625","-75.6875","-46.9375"
"1571675460764","196","0.9716797","1.2509766","-1.6669922","90.875","-126.53125","-46.59375"
"1571675460825","197","-0.43066406","1.0322266","-0.88183594","-108.71875","62.84375","65.0"
"1571675460945","198","-0.359375","1.5419922","0.40234375","87.25","-184.09375","-39.125"
"1571675461034","199","-0.2705078","0.578125","-0.087890625","-84.78125","-193.125","-94.1875"
"1571675461154","200","0.033203125","0.7421875","-0.038085938","-53.0625","-20.03125","-50.6875"
"1571675461244","201","-0.12109375","1.0087891","0.20996094","-92.1875","94.03125","-47.0625"
"1571675461334","202","0.16601562","1.2470703","9.765625E-4","40.375","-21.75","-30.59375"
"1571675461424","203","0.36328125","1.0136719","-0.048828125","184.125","-15.8125","65.84375"
"1571675461544","204","-0.15234375","1.8212891","1.1689453","202.125","-72.90625","117.90625"
"1571675461634","205","-9.765625E-4","1.1376953","-0.4091797","-67.875","70.78125","145.5625"
"1571675461724","206","-0.48242188","0.7832031","0.19335938","16.46875","-227.375","86.34375"
"1571675461843","207","-0.3017578","0.4189453","-0.27441406","-45.1875","-58.125","-21.125"
"1571675461933","208","2.0","2.0","-0.765625","15.125","-32.125","78.21875"
"1571675462025","209","-0.6699219","2.0","-0.58496094","-49.5","-329.53125","-73.6875"
"1571675462144","210","-0.41601562","0.80566406","0.26367188","37.28125","56.625","-63.8125"
"1571675462234","211","0.15820312","1.0742188","0.3486328","-75.6875","-183.84375","-76.84375"
"1571675462324","212","-0.09863281","0.9453125","-0.0546875","-38.40625","-27.1875","-19.84375"
"1571675462444","213","-0.3515625","0.8076172","0.25097656","-46.59375","81.65625","-13.0625"
"1571675462534","214","-0.06738281","1.1689453","0.028320312","-43.96875","-124.71875","-72.03125"
"1571675462624","215","0.19433594","1.1328125","0.15429688","31.125","-16.0","30.5625"
"1571675462744","216","-0.072265625","1.0830078","0.05859375","103.125","-143.15625","151.21875"
"1571675462834","217","-0.25976562","1.0703125","0.53515625","23.59375","46.90625","144.21875"
"1571675462924","218","-0.40039062","0.6582031","0.19726562","84.03125","-186.78125","75.4375"
"1571675463044","219","-0.34277344","0.2939453","-0.018554688","-70.28125","-2.6875","-59.46875"
"1571675463134","220","0.4248047","1.8027344","-0.12011719","-66.53125","-39.1875","75.125"
"1571675463224","221","0.34472656","0.83984375","0.30664062","-46.21875","-43.96875","-0.625"
"1571675463375","222","-0.0546875","1.1494141","0.48828125","-102.96875","-25.09375","-79.96875"
"1571675463434","223","-0.059570312","0.93359375","0.10546875","-98.15625","120.96875","-41.03125"
"1571675463524","224","0.095703125","0.8720703","0.18554688","-69.71875","-20.78125","-54.6875"
"1571675463645","225","-0.16210938","1.1582031","0.028320312","12.1875","-22.40625","-39.125"
"1571675463734","226","0.37304688","1.3310547","0.3701172","13.34375","-53.3125","7.5"
"1571675463824","227","-0.16992188","1.2128906","0.0546875","115.34375","-19.90625","186.625"
"1571675463944","228","-0.16503906","1.0087891","0.2705078","10.71875","75.71875","138.34375"
"1571675464034","229","-0.20605469","0.5810547","0.20214844","67.6875","-161.9375","68.84375"
"1571675464124","230","-0.37304688","0.19921875","0.11816406","-81.6875","-10.4375","-64.40625"
"1571675464244","231","0.5107422","1.6630859","0.030273438","-43.65625","-62.6875","61.1875"
"1571675464334","232","0.17285156","1.1455078","0.24121094","10.0625","11.9375","28.1875"
"1571675464425","233","-0.022460938","1.2412109","0.7109375","-90.71875","-124.71875","-101.875"
"1571675464544","234","0.01953125","0.921875","-0.0068359375","-68.5","141.46875","-44.03125"
"1571675464634","235","0.001953125","0.8339844","0.15136719","-43.03125","-10.6875","-38.28125"
"1571675464724","236","-0.26757812","0.8964844","0.22167969","-29.625","98.125","-32.375"
"1571675464844","237","0.2265625","1.2519531","0.27929688","35.375","-53.46875","-60.5625"
"1571675464934","238","0.06933594","1.0214844","-0.013671875","85.375","22.09375","98.96875"
"1571675465024","239","-0.21386719","1.9248047","0.48339844","142.8125","-92.375","140.3125"
"1571675465144","240","-0.29101562","0.953125","0.23632812","18.46875","-76.1875","112.71875"
"1571675465234","241","-0.71484375","0.33007812","0.10058594","28.375","-138.8125","34.71875"
"1571675465326","242","0.16113281","0.90234375","-0.76660156","-80.28125","-43.90625","-90.78125"
"1571675465444","243","-0.052734375","0.078125","0.32714844","32.15625","-48.84375","34.84375"
"1571675465534","244","0.32714844","1.0429688","-0.022460938","-50.4375","56.75","-29.8125"
"1571675465654","245","0.018554688","1.171875","0.4404297","-51.53125","-125.9375","-81.125"
"1571675465776","246","-0.051757812","0.8613281","0.045898438","-84.625","-23.5","-5.8125"
"1571675465834","247","-0.13183594","0.9248047","0.31835938","-30.46875","-99.1875","-35.71875"
"1571675465924","248","-0.1953125","0.9394531","0.18261719","-57.6875","29.46875","-47.0"
"1571675466044","249","-0.036132812","1.0947266","0.02734375","-5.4375","-14.25","-35.0"
"1571675466134","250","0.34472656","1.3642578","0.4326172","59.25","-228.46875","-44.625"
"1571675466254","251","0.06347656","0.8564453","0.017578125","133.84375","-142.09375","115.46875"
"1571675466434","252","0.08691406","1.3847656","1.0498047","171.0","-45.78125","104.53125"
"1571675466436","253","-0.021484375","1.0136719","-0.6269531","-187.28125","-167.75","89.03125"
"1571675466524","254","-0.6074219","0.6591797","0.024414062","2.90625","-168.71875","61.03125"
"1571675466644","255","9.765625E-4","0.6308594","-0.3203125","-23.75","-106.15625","-16.8125"
"1571675466734","256","0.359375","1.3271484","-0.25585938","-14.25","-20.03125","65.90625"
"1571675466824","257","0.06933594","2.0","-0.43652344","39.59375","-258.6875","-33.53125"
"1571675466943","258","-0.3017578","0.7421875","0.13964844","-70.875","31.0","-38.40625"
"1571675467034","259","0.31835938","1.0166016","0.01953125","-76.0625","-144.84375","-55.5625"
"1571675467124","260","-0.038085938","0.8730469","0.12207031","-17.09375","-89.3125","-8.375"
"1571675467244","261","-0.0107421875","1.0107422","-0.07421875","-31.5625","73.15625","3.65625"
"1571675467334","262","0.31640625","0.45117188","-0.59375","81.09375","-93.65625","35.375"
"1571675467424","263","-0.12890625","0.47558594","0.359375","107.09375","-79.125","45.9375"
"1571675467514","264","0.53808594","2.0","-0.26660156","130.46875","-20.09375","198.34375"
"1571675467634","265","0.18554688","1.1289062","-0.2109375","-0.375","24.15625","38.625"
"1571675467724","266","-0.20117188","0.29785156","-0.1171875","-45.375","-47.0625","-39.375"
"1571675467814","267","0.001953125","0.7529297","-0.059570312","-36.21875","-75.625","-99.8125"
"1571675467934","268","0.09082031","0.7265625","-0.2939453","-112.4375","14.8125","-48.96875"
"1571675468024","269","0.12402344","2.0","0.060546875","-33.28125","81.96875","54.1875"
"1571675468147","270","-0.35839844","1.1328125","0.29589844","180.03125","-165.1875","-21.25"
"1571675468234","271","-0.27246094","0.8925781","0.3408203","-106.78125","149.8125","4.8125"
"1571675468324","272","0.080078125","0.7324219","0.15722656","15.0","-18.375","-20.84375"
"1571675468414","273","0.32617188","0.34960938","-0.31445312","126.9375","269.8125","62.25"
"1571675468534","274","0.049804688","0.36621094","0.21191406","70.59375","20.6875","38.125"
"1571675468624","275","0.28808594","2.0","-0.41796875","40.625","118.46875","132.96875"
"1571675468714","276","0.1484375","1.2519531","-0.3544922","-14.65625","14.3125","29.59375"
"1571675468834","277","-0.11230469","0.46679688","-0.12597656","-15.15625","-47.9375","-23.09375"
"1571675468924","278","-0.107421875","0.5283203","0.044921875","-54.875","-49.03125","-87.40625"
"1571675469014","279","-0.045898438","0.78027344","-0.19042969","-93.21875","-97.625","-86.9375"
"1571675469134","280","0.06640625","1.0419922","-0.421875","-16.25","98.875","4.875"
"1571675469224","281","-0.09082031","1.2763672","0.07714844","70.3125","-41.65625","24.03125"
"1571675469315","282","-0.3515625","1.1201172","0.27539062","-28.75","21.03125","-1.65625"
"1571675469434","283","0.025390625","0.6220703","-0.087890625","-22.90625","41.25","-32.71875"
"1571675469524","284","0.05078125","0.45410156","-0.1015625","54.71875","48.1875","17.375"
"1571675469614","285","0.015625","0.5644531","-0.061523438","104.53125","27.6875","58.40625"
"1571675469734","286","-0.32421875","2.0","-0.47851562","31.1875","119.125","126.09375"
"1571675469824","287","0.08886719","1.4345703","-0.4814453","-48.59375","30.4375","13.84375"
"1571675469915","288","-0.051757812","0.24609375","-0.0859375","-41.875","-37.75","-54.34375"
"1571675470034","289","-0.16601562","0.5019531","-0.14648438","-57.875","-66.71875","-70.09375"
"1571675470124","290","0.59765625","1.0712891","-0.91503906","-41.8125","137.8125","-54.09375"
"1571675470214","291","-0.34375","1.1728516","0.2919922","-85.78125","-36.21875","11.15625"
"1571675470334","292","0.009765625","1.5205078","0.25","23.4375","39.96875","14.09375"
"1571675470424","293","-0.16503906","0.90234375","0.3642578","-75.5625","6.75","-27.71875"
"1571675470514","294","0.0234375","0.5761719","-0.47070312","-42.6875","67.375","-17.59375"
"1571675470634","295","0.2548828","0.48046875","-0.0068359375","50.40625","51.8125","39.28125"
"1571675470724","296","-0.10644531","0.5966797","-0.19042969","101.1875","13.53125","62.78125"
"1571675470814","297","-0.026367188","2.0","-0.3251953","84.53125","-139.125","129.875"
"1571675470934","298","0.16113281","1.0566406","-0.48535156","-5.5625","-52.875","26.09375"
"1571675471024","299","-0.31640625","0.13378906","-0.09765625","-9.84375","-13.5625","-50.1875"
"1571675471114","300","0.13085938","1.0664062","-0.0087890625","-78.3125","-25.84375","-118.59375"
"1571675471234","301","0.2841797","0.44433594","-0.48242188","-115.875","19.09375","-65.375"
"1571675471323","302","-0.3642578","1.4003906","0.45507812","-17.65625","-94.375","42.71875"
"1571675471414","303","-0.05078125","0.99609375","0.07421875","0.15625","-169.21875","0.15625"
"1571675471534","304","-0.25878906","0.703125","0.19628906","-76.75","69.8125","-36.03125"
"1571675471624","305","0.15234375","0.5097656","0.08300781","43.125","-40.1875","-5.4375"
"1571675471714","306","0.40722656","0.5517578","-0.02734375","55.90625","83.53125","48.15625"
"1571675471834","307","0.13574219","2.0","-0.06933594","96.96875","22.5625","201.28125"
"1571675471923","308","0.3408203","1.3261719","-0.20117188","-26.0625","60.59375","53.75"
"1571675472016","309","-0.3623047","0.22949219","0.04296875","-14.71875","-82.90625","-79.90625"
"1571675472134","310","-0.032226562","0.5859375","-0.125","-58.0625","-59.84375","-89.1875"
"1571675472224","311","0.28027344","0.46679688","-0.57714844","-97.25","11.75","-30.59375"
"1571675472314","312","-0.0703125","2.0","0.17382812","-18.3125","-28.21875","82.03125"
"1571675472434","313","0.18554688","1.5507812","0.44726562","-18.375","-271.75","-46.9375"
"1571675472524","314","-0.3203125","0.7402344","0.055664062","-91.5625","112.46875","-22.46875"
"1571675472614","315","0.064453125","0.8417969","0.20800781","6.15625","-47.8125","-32.375"
"1571675472734","316","0.6347656","0.9472656","-0.16894531","65.34375","36.65625","60.71875"
"1571675472824","317","-0.27734375","0.5234375","0.109375","96.84375","-27.71875","39.15625"
"1571675472915","318","-0.08105469","2.0","-0.390625","56.4375","31.40625","148.53125"
"1571675473034","319","0.07519531","1.0683594","-0.4580078","-21.9375","-7.28125","5.0"
"1571675473124","320","-0.07714844","0.5185547","-0.0546875","-51.96875","5.71875","-42.75"
"1571675473214","321","-0.11621094","0.7607422","-0.02734375","-50.625","-74.53125","-96.75"
"1571675473424","322","0.49609375","1.0498047","-1.109375","-82.21875","34.03125","-37.375"
"1571675473425","323","-0.24511719","2.0","0.14648438","-45.90625","-99.25","-2.34375"
"1571675473514","324","-0.09082031","0.92285156","0.20800781","3.15625","-67.15625","-43.15625"
"1571675473634","325","-0.5029297","0.9326172","0.29589844","-72.9375","194.0","10.71875"
"1571675473724","326","0.22265625","0.796875","-0.021484375","16.15625","26.78125","-48.125"
"1571675473814","327","0.51464844","0.5673828","-0.15820312","106.0625","177.40625","62.0625"
"1571675473935","328","0.08496094","0.90625","-0.3642578","98.375","173.3125","75.90625"
"1571675474024","329","-0.18261719","2.0","0.3232422","86.15625","-13.6875","180.59375"
"1571675474114","330","0.18847656","1.0595703","-0.5361328","-36.8125","8.09375","-14.53125"
"1571675474205","331","-0.14453125","0.36132812","-0.087890625","-47.125","-27.71875","-62.5"
"1571675474324","332","-0.0087890625","0.81640625","-0.08691406","-34.875","-78.375","-89.0"
"1571675474414","333","0.22070312","0.80078125","-0.48632812","-88.34375","68.15625","-35.28125"
"1571675474624","334","-0.0107421875","1.8408203","-0.02734375","-50.625","-43.65625","7.6875"
"1571675474625","335","-0.05078125","1.6611328","0.12109375","10.46875","41.4375","-8.625"
"1571675474714","336","-0.34570312","1.0341797","0.46777344","-70.3125","77.3125","-14.1875"
"1571675474804","337","0.022460938","0.6220703","-0.16503906","19.6875","37.34375","-30.71875"
"1571675474924","338","0.2607422","0.69140625","0.05078125","-8.125","-34.625","-40.0625"
"1571675475014","339","-0.17871094","0.7529297","-0.0625","58.53125","-106.09375","-33.46875"
"1571675475134","340","0.2265625","0.68847656","-0.23144531","145.5","172.28125","14.625"
"1571675475225","341","-0.7441406","1.7011719","0.5605469","203.90625","-210.53125","93.125"
"1571675475314","342","-0.24414062","0.8964844","-0.34277344","-203.8125","-340.90625","44.53125"
"1571675475404","343","-0.39941406","0.59375","-0.0078125","29.28125","-238.46875","50.09375"
"1571675475524","344","-0.23632812","0.63378906","-0.2919922","1.5625","-106.78125","36.46875"
"1571675475614","345","0.9404297","1.8447266","-0.515625","-8.375","-61.21875","71.9375"
"1571675475704","346","-0.60058594","0.8486328","-0.4033203","13.78125","-21.9375","52.90625"
"1571675475824","347","0.6777344","1.5058594","0.375","-41.875","-168.09375","-14.0"
"1571675475914","348","-0.15136719","0.96875","0.29003906","-29.5","-135.4375","-27.59375"
"1571675476004","349","-0.24414062","0.8203125","0.052734375","-41.28125","-35.78125","-41.34375"
"1571675476124","350","-0.14257812","0.8378906","0.17480469","-68.75","71.40625","-53.59375"
"1571675476213","351","0.099609375","1.2216797","-0.3310547","-27.59375","7.84375","-53.53125"
"1571675476305","352","0.3984375","1.3457031","0.057617188","137.8125","-50.75","68.15625"
"1571675476425","353","0.0048828125","1.5380859","0.796875","189.75","-273.75","99.84375"
"1571675476514","354","-0.37597656","0.99609375","0.26660156","-5.9375","128.90625","118.5"
"1571675476604","355","-0.5839844","0.66308594","0.12695312","63.875","-142.90625","70.65625"
"1571675476724","356","-0.20117188","0.38085938","-0.14550781","-27.59375","-21.3125","-53.25"
"1571675476814","357","1.2988281","2.0","-0.29492188","-44.09375","11.75","82.3125"
"1571675476905","358","0.7373047","2.0","0.8808594","43.5","-156.3125","2.0"
"1571675477054","359","-0.26757812","1.0888672","0.5371094","-85.28125","-54.34375","-110.4375"
"1571675477114","360","-0.107421875","1.0234375","0.1015625","-114.875","114.1875","-48.96875"
"1571675477203","361","-0.0126953125","0.8769531","0.16796875","-69.40625","53.625","-38.03125"
"1571675477323","362","-0.12597656","0.8857422","0.16308594","-57.6875","60.15625","-29.0"
"1571675477414","363","-0.0029296875","1.1787109","0.2890625","-7.15625","31.90625","-26.1875"
"1571675477504","364","0.15722656","1.2314453","0.11621094","15.5","-6.0625","46.3125"
"1571675477624","365","-0.22460938","1.4384766","0.115234375","109.90625","2.375","161.84375"
"1571675477715","366","-0.16015625","0.9921875","0.2890625","56.125","83.1875","125.09375"
"1571675477804","367","-0.48535156","0.5048828","0.08300781","74.3125","-117.09375","52.96875"
"1571675477924","368","-0.041015625","0.34277344","-0.072265625","-44.21875","-18.875","-80.28125"
"1571675478014","369","-0.07421875","0.9140625","-0.0048828125","7.0625","-91.4375","28.90625"
"1571675478106","370","-0.14746094","0.515625","-0.6689453","-53.25","226.375","15.0"
"1571675478224","371","-0.016601562","1.2382812","0.6044922","-108.0","-88.28125","-84.25"
"1571675478314","372","-0.140625","0.85253906","-0.15625","-117.5625","222.40625","-36.21875"
"1571675478404","373","0.046875","0.83691406","0.1796875","-53.96875","-17.84375","-51.15625"
"1571675478524","374","-0.24707031","0.99121094","0.14648438","-40.40625","43.1875","-26.6875"
"1571675478614","375","0.38085938","1.4208984","0.51953125","19.03125","-87.65625","-28.53125"
"1571675478704","376","-0.12402344","0.8623047","-0.059570312","72.96875","10.25","136.75"
"1571675478824","377","-0.47558594","1.6269531","0.31640625","171.8125","75.4375","142.0"
"1571675478914","378","-0.09375","0.78808594","0.13964844","27.625","-111.03125","90.875"
"1571675479004","379","-0.5917969","0.25976562","0.14648438","-22.78125","-67.65625","17.6875"
"1571675479124","380","1.1328125","1.6181641","-1.5029297","-5.6875","-113.46875","-76.5625"
"1571675479214","381","-0.53808594","0.29785156","0.107421875","-11.3125","-18.03125","-29.125"
"1571675479334","382","-0.7597656","-0.17382812","-0.5966797","-80.40625","64.625","-51.15625"
"1571675479425","383","0.265625","0.9980469","0.5","-119.21875","-79.65625","-67.28125"
"1571675479514","384","-0.3232422","0.85058594","-0.33398438","14.875","135.25","-41.65625"
"1571675479604","385","0.030273438","0.9472656","0.21679688","-59.34375","-28.40625","-43.53125"
"1571675479724","386","-0.1484375","0.9111328","0.18164062","-13.6875","29.40625","-63.1875"
"1571675479814","387","0.06640625","1.1689453","0.15234375","62.375","-51.40625","-6.90625"
"1571675479905","388","0.17773438","1.2646484","0.24511719","199.75","-154.875","54.78125"
"1571675480024","389","0.107421875","1.2373047","0.9609375","180.71875","0.28125","106.1875"
"1571675480114","390","-0.36132812","1.0654297","0.56933594","16.03125","-17.03125","115.65625"
"1571675480204","391","-0.4970703","0.78515625","0.06347656","25.125","-230.25","61.09375"
"1571675480324","392","-0.27246094","0.5078125","-0.14746094","-28.46875","-96.5","-4.59375"
"1571675480414","393","1.28125","2.0","-0.43359375","-14.59375","-25.59375","103.875"
"1571675480504","394","-0.30078125","1.9335938","-1.0019531","-103.53125","-247.28125","-36.21875"
"1571675480624","395","-0.29003906","0.8886719","0.328125","-31.5625","-80.9375","-60.75"
"1571675480714","396","-0.16210938","1.1347656","0.22558594","-15.53125","-126.1875","-14.3125"
"1571675480804","397","-0.21582031","0.8769531","0.12402344","-74.125","0.59375","-27.53125"
"1571675480924","398","-0.049804688","0.9746094","0.083984375","-63.75","45.9375","-30.71875"
"1571675481014","399","-0.041992188","0.9794922","0.10644531","-53.71875","7.625","-38.46875"
"1571675481104","400","0.087890625","1.2714844","0.13085938","61.75","-33.21875","24.875"
"1571675481194","401","-0.016601562","1.109375","-0.22558594","248.875","-75.625","119.0625"
"1571675481314","402","-0.56152344","1.3251953","0.6230469","104.53125","193.78125","89.9375"
"1571675481404","403","-0.23730469","0.6738281","-0.0703125","24.34375","-60.0","72.96875"
"1571675481494","404","-0.23535156","0.5175781","0.07421875","-85.90625","21.53125","-31.625"
"1571675481614","405","0.109375","0.58691406","-0.38476562","-52.3125","-135.09375","-50.90625"
"1571675481704","406","0.030273438","0.8544922","-0.7861328","-27.96875","-59.40625","-4.53125"
"1571675481795","407","1.2890625","2.0","-2.0","30.1875","376.75","93.125"
"1571675481914","408","-0.35253906","1.2773438","0.75","-7.8125","71.875","-21.1875"
"1571675482009","409","-0.034179688","0.66015625","-0.70214844","-102.5625","585.1875","1.8125"
"1571675482123","410","0.13671875","0.6308594","0.19238281","-1.1875","-84.84375","-17.09375"
"1571675482214","411","0.36328125","0.34375","-0.017578125","52.0","13.96875","42.65625"
"1571675482303","412","0.19042969","2.0","0.3515625","82.6875","6.09375","130.78125"
"1571675482394","413","-0.005859375","1.1005859","-0.38867188","-30.96875","36.1875","6.28125"
"1571675482515","414","-0.10058594","0.40820312","-0.0068359375","-16.125","-14.90625","-69.28125"
"1571675482604","415","-0.0703125","0.5966797","-0.048828125","-44.75","-92.78125","-93.09375"
"1571675482694","416","0.41796875","0.9199219","-1.9853516","-34.1875","173.4375","-11.125"
"1571675482814","417","0.71777344","2.0","-0.26171875","-17.40625","173.5625","25.0"
"1571675482904","418","-0.17089844","1.2148438","0.5107422","31.28125","-163.78125","-14.96875"
"1571675482994","419","-0.1875","0.7441406","-0.06542969","-104.03125","29.40625","-53.96875"
"1571675483114","420","0.35058594","0.27441406","-0.33007812","118.28125","169.1875","44.25"
"1571675483204","421","0.123046875","0.5019531","-0.1328125","115.34375","-14.78125","73.84375"
"1571675483294","422","-0.10449219","2.0","-0.24511719","38.9375","49.96875","103.375"
"1571675483414","423","0.07910156","1.2451172","-0.4736328","-20.875","13.0","-4.90625"
"1571675483504","424","-0.15136719","0.46777344","-0.052734375","-39.03125","0.65625","-59.53125"
"1571675483594","425","-0.07128906","0.5839844","-0.0068359375","-57.375","-61.21875","-64.65625"
"1571675483714","426","0.32714844","0.5966797","-0.19726562","-85.9375","-13.4375","-55.0625"
"1571675483804","427","-0.5136719","2.0","0.0126953125","-27.53125","-79.65625","12.75"
"1571675483894","428","0.32617188","1.1513672","0.31054688","-2.21875","-76.0","-26.6875"
"1571675484015","429","-0.3828125","0.7548828","0.16894531","-64.09375","103.9375","-13.5625"
"1571675484104","430","-0.024414062","0.61621094","0.0546875","11.40625","80.125","-50.625"
"1571675484194","431","0.5107422","0.75390625","-0.8125","62.375","284.34375","86.09375"
"1571675484315","432","-0.01171875","0.7421875","-0.13183594","126.5625","54.4375","106.5"
"1571675484404","433","-9.765625E-4","1.7480469","-0.24121094","46.1875","-73.6875","110.40625"
"1571675484494","434","-0.1953125","0.9140625","-0.41015625","-10.9375","-43.46875","-21.4375"
"1571675484614","435","0.21484375","0.4033203","-0.00390625","-73.5","23.1875","-88.6875"
"1571675484704","436","-0.09863281","0.70996094","-9.765625E-4","-71.96875","-122.34375","-72.84375"
"1571675484794","437","0.1171875","0.51660156","-0.82128906","-99.875","106.625","-21.3125"
"1571675484914","438","-0.453125","2.0","-0.16015625","70.71875","40.9375","32.9375"
"1571675485004","439","0.17578125","1.3671875","0.43945312","-22.96875","-109.625","-27.71875"
"1571675485094","440","-0.2841797","0.74902344","0.07128906","-72.03125","15.65625","-29.5"
"1571675485214","441","-0.0107421875","0.68847656","0.08886719","13.40625","13.59375","-27.84375"
"1571675485305","442","0.36816406","0.5859375","-0.052734375","72.4375","58.15625","40.375"
"1571675485394","443","-0.07714844","0.6123047","0.12207031","73.90625","-13.9375","52.15625"
"1571675485515","444","0.3955078","2.0","-0.7558594","35.625","160.875","165.6875"
"1571675485604","445","-0.11035156","1.3779297","-0.375","-10.34375","8.78125","36.84375"
"1571675485694","446","-0.22753906","0.55371094","-0.10058594","-6.78125","-40.40625","-40.59375"
"1571675485814","447","-0.038085938","0.60839844","0.025390625","-52.75","-31.03125","-86.0625"
"1571675485905","448","0.15820312","0.75683594","-0.083984375","-97.90625","-51.90625","-75.34375"
"1571675485994","449","-0.1953125","0.953125","-9.765625E-4","16.84375","-42.1875","7.375"
"1571675486114","450","-0.06933594","1.5302734","0.11816406","35.9375","43.375","25.25"
"1571675486204","451","-0.21972656","0.94921875","0.43164062","-25.15625","-51.15625","-22.90625"
"1571675486294","452","-0.11621094","0.7138672","-0.07714844","-63.90625","84.6875","-29.8125"
"1571675486414","453","0.2578125","0.87890625","0.09472656","22.1875","-53.53125","1.8125"
"1571675486504","454","0.203125","0.87402344","0.03515625","33.625","15.0625","39.09375"
"1571675486594","455","0.28320312","1.6513672","-0.56347656","49.125","125.03125","146.03125"
"1571675486714","456","-0.049804688","1.3642578","-0.27539062","9.8125","1.625","51.6875"
"1571675486803","457","-0.072265625","0.50683594","-0.171875","1.625","-27.25","-21.25"
"1571675486894","458","0.0048828125","0.5839844","0.0107421875","-38.96875","-16.96875","-76.84375"
"1571675487013","459","0.061523438","0.5517578","-0.22167969","-71.5","-73.625","-95.78125"
"1571675487104","460","0.20214844","0.48046875","-0.4560547","-26.75","7.0625","-7.21875"
"1571675487194","461","-0.20117188","1.7558594","-0.09667969","39.59375","262.0","64.5"
"1571675487314","462","-0.24511719","1.1035156","0.46679688","32.6875","-85.78125","-9.34375"
"1571675487404","463","-0.15136719","0.82421875","0.01953125","-73.4375","22.375","-35.96875"
"1571675487494","464","0.3076172","0.78808594","0.12402344","-7.8125","-125.125","-11.5625"
"1571675487614","465","-0.16699219","0.63964844","-0.5107422","7.6875","68.28125","44.0"
"1571675487704","466","0.34472656","0.84765625","-0.015625","31.96875","109.46875","28.3125"
"1571675487794","467","-0.25390625","1.6064453","-0.22070312","85.0625","-63.4375","98.75"
"1571675487884","468","0.025390625","0.85839844","-0.2109375","11.75","-34.8125","2.25"
"1571675488004","469","-0.076171875","0.52734375","-0.0546875","-41.28125","-40.84375","-59.34375"
"1571675488094","470","0.01171875","0.77441406","-0.038085938","-53.65625","-133.5625","-96.875"
"1571675488184","471","0.2841797","0.5439453","-0.39160156","-62.34375","14.6875","-20.46875"
"1571675488305","472","-0.21875","2.0","0.2705078","-28.03125","-134.21875","40.5625"
"1571675488394","473","0.091796875","1.4052734","0.48535156","22.6875","-185.8125","-21.75"
"1571675488484","474","-0.2919922","0.81347656","-9.765625E-4","-68.5","31.0","-34.5"
"1571675488604","475","0.16894531","0.81347656","0.13085938","-30.59375","-32.5","-38.71875"
"1571675488694","476","0.27929688","0.81152344","-0.21875","53.21875","44.59375","23.59375"
"1571675488784","477","0.046875","0.53222656","-0.03125","96.78125","31.71875","48.9375"
"1571675488907","478","0.33398438","1.7333984","0.018554688","85.4375","16.53125","138.09375"
"1571675488994","479","0.18457031","1.3144531","-0.11425781","-44.03125","-45.1875","55.96875"
"1571675489114","480","-0.15039062","0.56347656","-0.38671875","-8.1875","-158.21875","-28.875"
"1571675489204","481","0.0126953125","0.5625","-0.18359375","-47.5","-30.46875","-56.28125"
"1571675489294","482","0.42773438","0.90722656","-0.22558594","-14.84375","-63.96875","-28.59375"
"1571675489384","483","0.057617188","0.41601562","0.09863281","56.0625","-10.9375","56.4375"
"1571675489504","484","-0.4404297","-0.13671875","0.48632812","101.90625","-101.34375","-23.75"
"1571675489594","485","-0.21386719","0.6982422","0.54785156","-132.8125","-1.0","-54.53125"
"1571675489684","486","-0.040039062","0.9277344","0.2109375","-18.09375","118.15625","-61.28125"
"1571675489804","487","0.11230469","1.1171875","0.24121094","-75.875","21.03125","-34.5625"
"1571675489894","488","-0.40234375","0.98535156","0.21191406","-34.5","-39.5","-36.28125"
"1571675489984","489","0.1640625","1.0332031","0.36328125","4.875","10.375","-15.15625"
"1571675490105","490","0.11328125","1.1621094","0.040039062","89.9375","-0.75","85.0"
"1571675490194","491","-0.48242188","1.6367188","0.24707031","128.15625","120.46875","160.09375"
"1571675490284","492","0.3076172","0.9785156","0.01171875","7.3125","-93.875","101.90625"
"1571675490404","493","-0.57421875","0.49121094","0.12207031","51.625","-73.4375","45.625"
"1571675490494","494","0.20996094","0.6582031","-0.14453125","-13.1875","9.625","-37.90625"
"1571675490584","495","1.0859375","1.3408203","-0.32421875","-41.46875","-71.3125","-13.0625"
"1571675490734","496","-1.1503906","1.6591797","-0.1171875","-124.03125","13.78125","-102.8125"
"1571675490794","497","-0.8808594","0.50097656","-0.1171875","-34.125","146.84375","-40.375"
"1571675490884","498","-0.03515625","1.0283203","0.4296875","-115.375","50.15625","-35.59375"
"1571675491004","499","0.091796875","1.0732422","0.18359375","-42.5","130.1875","9.9375"
"1571675491094","500","-0.009765625","0.8955078","0.13378906","-24.5","30.1875","0.53125"
"1571675491184","501","-0.25683594","0.8876953","0.31152344","-16.1875","55.84375","-34.6875"
"1571675491304","502","-9.765625E-4","1.0791016","0.35351562","-29.875","54.1875","-41.53125"
"1571675491394","503","0.26757812","1.2626953","-0.3564453","172.46875","107.28125","84.59375"
"1571675491484","504","-0.5292969","1.7666016","-0.033203125","116.8125","95.25","178.625"
"1571675491604","505","-0.1796875","0.79785156","-0.12988281","40.21875","29.9375","107.15625"
"1571675491694","506","-0.3798828","0.6953125","0.12109375","66.09375","-120.3125","32.15625"
"1571675491784","507","0.3154297","0.71875","-0.2998047","-19.90625","-8.75","-32.5625"
"1571675491904","508","0.61621094","1.1396484","-0.72265625","-8.125","-24.5625","-22.90625"
"1571675491994","509","-0.8769531","1.5263672","-0.765625","-72.65625","43.9375","-41.9375"
"1571675492083","510","-0.8623047","-0.29785156","-0.032226562","-97.84375","83.1875","-3.3125"
"1571675492204","511","0.13476562","0.921875","0.125","-111.53125","114.65625","-58.0"
"1571675492295","512","0.13964844","0.92089844","0.1796875","-43.84375","-22.59375","-46.21875"
"1571675492384","513","-0.053710938","0.9873047","0.005859375","-42.625","54.78125","-20.28125"
"1571675492504","514","-0.11425781","0.9140625","0.23144531","-44.8125","36.375","-18.625"
"1571675492594","515","-0.21679688","0.90234375","0.123046875","-46.34375","74.03125","-12.21875"
"1571675492684","516","-0.08203125","0.9111328","0.24511719","24.71875","13.03125","-17.15625"
"1571675492804","517","-0.16699219","1.1367188","0.26464844","9.03125","70.90625","20.75"
"1571675492894","518","-0.36816406","0.72558594","0.22167969","52.21875","29.09375","7.25"
"1571675493015","519","-0.42773438","1.0283203","-0.33203125","99.09375","-10.9375","-17.34375"
"1571675493104","520","-0.24121094","0.90625","-0.0703125","-1.3125","22.09375","-7.34375"
"1571675493194","521","-0.25585938","0.93359375","-0.046875","-9.125","-11.1875","-22.0"
"1571675493284","522","-0.13476562","0.97753906","-0.05859375","-3.96875","-11.78125","-9.53125"
"1571675493405","523","-0.23730469","0.9658203","0.03125","4.1875","5.21875","20.4375"
"1571675493495","524","-0.23632812","1.0419922","-0.028320312","19.875","-18.15625","40.34375"
"1571675493584","525","-0.24804688","0.9375","0.034179688","7.96875","-21.5","39.65625"
"1571675493704","526","-0.15136719","0.93359375","-0.0078125","2.375","-47.25","20.375"
"1571675493794","527","-0.14941406","0.9404297","-0.016601562","-2.03125","-50.5625","5.40625"
"1571675493884","528","-0.14355469","0.91308594","0.040039062","-4.65625","-32.78125","4.0625"
"1571675494004","529","-0.27246094","0.9765625","-0.0078125","-13.125","-20.46875","-20.53125"
"1571675494095","530","-0.15234375","1.0644531","0.051757812","-20.84375","9.3125","-15.625"
"1571675494184","531","-0.15039062","0.94140625","0.13671875","-7.65625","-7.59375","-11.71875"
"1571675494304","532","-0.16699219","0.94628906","0.08300781","-9.78125","-4.09375","-7.71875"
"1571675494395","533","-0.15820312","0.9550781","0.10546875","-2.59375","-8.5","-3.625"
"1571675494484","534","-0.19726562","0.97753906","0.11328125","0.21875","-6.90625","2.1875"
"1571675494604","535","-0.1875","0.9560547","0.16210938","0.28125","-10.09375","-0.8125"
"1571675494694","536","-0.20214844","0.9638672","0.10546875","-3.875","-1.0625","-1.1875"
"1571675494785","537","-0.15039062","0.95410156","0.16894531","2.65625","-7.78125","2.1875"
"1571675494874","538","-0.20117188","0.953125","0.13671875","3.53125","-10.4375","-1.0625"
"1571675494994","539","-0.14941406","0.9609375","0.12597656","-2.15625","-3.90625","-2.46875"
"1571675495085","540","-0.15917969","0.9736328","0.10839844","-3.1875","-20.03125","-1.1875"
"1571675495174","541","-0.1953125","0.9394531","0.14550781","-1.53125","-10.8125","-1.1875"
"1571675495294","542","-0.24707031","0.9326172","0.14355469","-8.5625","14.3125","-3.625"
"1571675495383","543","-0.14648438","0.94433594","0.125","-8.75","7.4375","-0.3125"
"1571675495474","544","-0.20117188","0.9589844","0.16894531","-4.53125","18.21875","3.34375"
"1571675495595","545","-0.234375","0.94921875","0.15039062","-7.40625","23.46875","5.0"
"1571675495684","546","-0.15136719","0.9501953","0.22070312","-1.65625","15.65625","0.96875"
"1571675495774","547","-0.107421875","0.9482422","0.17773438","-8.6875","12.5625","-0.1875"
"1571675495894","548","-0.13769531","0.9248047","0.21191406","2.78125","-1.65625","2.25"
"1571675495984","549","-0.234375","0.9355469","0.24316406","-3.6875","-0.1875","3.03125"
"1571675496104","550","-0.15136719","0.9550781","0.12109375","0.21875","-5.5625","-6.0"
"1571675496194","551","-0.17578125","0.93359375","0.16308594","3.65625","21.65625","-6.90625"
"1571675496285","552","-0.055664062","0.9345703","0.19042969","1.15625","21.96875","-19.71875"
"1571675496374","553","-0.01953125","0.9667969","0.099609375","18.65625","8.84375","-6.375"
"1571675496494","554","-0.3701172","1.1220703","0.22851562","14.09375","2.90625","-14.25"
"1571675496585","555","-0.08300781","0.9042969","-0.15234375","66.34375","33.96875","0.0"
"1571675496674","556","-0.052734375","0.9355469","0.00390625","49.0625","49.96875","56.25"
"1571675496794","557","-0.10058594","1.0634766","-0.11230469","-9.125","-18.8125","63.34375"
"1571675496884","558","-0.072265625","1.0048828","-0.14941406","7.3125","-78.5625","80.375"
"1571675496974","559","-0.21191406","0.8623047","-0.21582031","33.90625","-84.5625","59.25"
"1571675497094","560","-0.041992188","0.8017578","-0.15234375","13.90625","-55.5625","12.25"
"1571675497184","561","0.12597656","0.82421875","-0.2685547","-2.6875","-63.6875","-18.8125"
"1571675497274","562","0.107421875","0.90527344","-0.23242188","4.25","-21.625","25.8125"
"1571675497394","563","0.6113281","1.7861328","0.06347656","-18.3125","-80.65625","-10.15625"
"1571675497484","564","-0.19921875","1.1757812","0.14746094","-91.4375","-0.1875","-73.3125"
"1571675497574","565","-0.28027344","0.99121094","-0.11621094","-65.4375","26.46875","-18.09375"
"1571675497694","566","0.022460938","0.90234375","0.18554688","-45.71875","30.0625","-10.9375"
"1571675497785","567","-0.15332031","0.93066406","0.171875","-40.59375","55.90625","4.875"
"1571675497874","568","-0.029296875","0.89941406","0.19042969","-41.9375","22.5","-23.9375"
"1571675497994","569","-0.109375","0.95214844","0.17285156","-14.53125","35.5625","-0.6875"
"1571675498084","570","-0.14355469","1.1396484","0.37597656","-18.4375","56.875","-20.71875"
"1571675498174","571","0.26953125","1.1689453","0.068359375","29.59375","-40.375","3.21875"
"1571675498324","572","-0.2421875","1.1259766","0.07910156","118.5","-2.21875","135.84375"
"1571675498385","573","-0.047851562","0.9609375","-0.22070312","-0.6875","98.5","97.46875"
"1571675498474","574","-0.375","0.82421875","0.01953125","33.75","-99.75","72.5"
"1571675498594","575","0.36914062","0.74609375","-0.21777344","-48.0","-2.21875","-15.09375"
"1571675498686","576","-0.10644531","0.7373047","0.040039062","-51.59375","-11.3125","-73.8125"
"1571675498774","577","0.20117188","0.42285156","-0.20703125","-7.21875","-39.75","-17.40625"
"1571675498894","578","0.06542969","0.8857422","-0.39453125","12.375","118.9375","27.375"
"1571675498984","579","-0.15722656","-0.15820312","0.123046875","-135.625","168.5625","-29.5625"
"1571675499074","580","-0.3671875","0.5546875","0.3095703","-19.1875","88.84375","-28.6875"
"1571675499194","581","0.20996094","0.9003906","-0.07324219","-12.65625","-44.8125","-62.9375"
"1571675499285","582","-0.028320312","0.89941406","0.01171875","-10.21875","-44.21875","-46.21875"
"1571675499375","583","0.068359375","0.63183594","-0.09472656","35.875","25.875","-25.46875"
"1571675499494","584","-0.16894531","0.77246094","0.14257812","32.28125","-133.25","-15.34375"
"1571675499585","585","0.44140625","1.1533203","0.0068359375","19.15625","11.28125","-30.40625"
"1571675499674","586","-0.5527344","1.9404297","0.24414062","23.90625","-14.46875","189.4375"
"1571675499794","587","-0.35058594","0.6894531","0.36523438","27.75","-65.3125","45.875"
"1571675499884","588","-0.4892578","0.5058594","0.2626953","47.34375","-173.34375","63.03125"
"1571675499974","589","-0.17773438","0.57421875","-0.38378906","2.3125","-97.0","-8.6875"
"1571675500094","590","0.20898438","0.8046875","-0.021484375","42.59375","-79.0625","86.15625"
"1571675500184","591","0.13574219","1.2578125","0.47265625","45.9375","106.90625","107.03125"
"1571675500274","592","-0.3466797","1.828125","0.57910156","-72.21875","33.8125","-184.15625"
"1571675500394","593","0.02734375","0.92285156","-0.111328125","-75.40625","220.125","-51.34375"
"1571675500485","594","0.09863281","0.8232422","0.26464844","-85.34375","-81.5","-46.40625"
"1571675500604","595","-0.23730469","0.9453125","0.0048828125","-61.34375","29.9375","-35.0625"
"1571675500694","596","0.08496094","1.0576172","0.39941406","56.125","-4.34375","-36.28125"
"1571675500784","597","0.01953125","1.2001953","-0.06640625","28.96875","-16.0625","55.40625"
"1571675500874","598","-0.20117188","1.3808594","0.21386719","113.21875","-90.65625","141.78125"
"1571675500994","599","0.022460938","0.9951172","0.29785156","31.1875","45.75","128.71875"
"1571675501084","600","-0.48339844","0.6699219","0.21289062","52.96875","-203.03125","49.1875"
"1571675501174","601","-0.18847656","0.5839844","-0.25097656","-27.125","-14.125","-29.3125"
"1571675501294","602","1.7382812","2.0","-1.3271484","-30.09375","-13.375","28.5625"
"1571675501385","603","-1.1298828","2.0","-0.6044922","-46.78125","-313.3125","-100.25"
"1571675501474","604","-0.45898438","0.8964844","0.18066406","-67.34375","99.15625","-70.8125"
"1571675501594","605","0.0703125","1.0107422","0.2861328","-106.875","10.65625","-61.1875"
"1571675501684","606","0.043945312","0.9550781","0.06738281","-38.65625","68.15625","4.6875"
"1571675501774","607","-0.12011719","0.8359375","0.27539062","-33.09375","30.1875","-6.78125"
"1571675501984","608","-0.27734375","1.0009766","0.18554688","-38.09375","1.5","-50.90625"
"1571675501985","609","0.32421875","1.3486328","0.42285156","7.3125","-29.375","-21.9375"
"1571675502074","610","-0.13867188","0.921875","-0.16210938","105.15625","84.8125","124.9375"
"1571675502164","611","-0.14746094","1.4677734","0.46289062","140.90625","-12.46875","110.9375"
"1571675502284","612","-0.06640625","0.9501953","0.06542969","66.21875","-124.84375","98.875"
"1571675502374","613","-0.4609375","0.29101562","0.06640625","1.03125","-63.96875","6.6875"
"1571675502464","614","0.62890625","1.2763672","-0.7128906","-69.96875","-31.15625","-69.84375"
"1571675502584","615","-0.5205078","0.6767578","-0.09863281","-28.21875","-0.25","-11.90625"
"1571675502674","616","-0.25097656","0.35742188","-0.09472656","-84.1875","243.03125","-62.5625"
"1571675502764","617","0.064453125","1.0458984","0.46972656","-91.6875","-89.0625","-75.5625"
"1571675502884","618","0.013671875","0.95410156","-0.001953125","-54.21875","143.28125","9.375"
"1571675502974","619","-0.024414062","0.83984375","0.24316406","-43.71875","34.09375","-22.0625"
"1571675503094","620","-0.23730469","0.9404297","0.20507812","-27.125","25.5","-40.125"
"1571675503184","621","0.32226562","1.3984375","0.41796875","-8.5","-36.09375","-13.5"
"1571675503274","622","-0.22949219","0.79785156","-0.28515625","78.28125","60.40625","118.6875"
"1571675503364","623","-0.35351562","1.6806641","0.57128906","142.5","46.96875","118.75"
"1571675503485","624","0.0703125","0.8330078","0.109375","62.3125","-166.46875","99.21875"
"1571675503574","625","-0.48828125","0.3154297","0.036132812","-30.46875","-53.53125","-14.0625"
"1571675503664","626","2.0","2.0","-0.94628906","-26.25","-7.9375","-14.78125"
"1571675503784","627","-0.7216797","1.5478516","-0.4873047","-147.0625","-129.21875","-39.125"
"1571675503874","628","-0.34375","1.1865234","0.34765625","-62.625","34.46875","-94.0"
"1571675503965","629","0.087890625","1.0517578","0.23730469","-127.09375","75.5","-74.96875"
"1571675504084","630","0.051757812","0.83203125","0.24023438","-54.875","57.40625","-40.71875"
"1571675504177","631","-0.21484375","1.0439453","0.16308594","-46.15625","44.46875","-35.78125"
"1571675504264","632","0.14648438","1.109375","0.42382812","34.84375","11.9375","-36.46875"
"1571675504414","633","0.053710938","1.0439453","-0.5644531","178.5625","-54.21875","82.75"
"1571675504475","634","-0.2421875","1.8564453","0.29003906","130.90625","-104.75","139.21875"
"1571675504564","635","-0.15039062","0.73828125","-0.27929688","-13.5625","86.15625","116.3125"
"1571675504684","636","-0.6669922","0.26757812","0.19628906","32.5625","-102.3125","36.65625"
"1571675504774","637","0.2607422","1.03125","-0.9746094","-132.59375","-22.40625","-115.5"
"1571675504864","638","-0.5214844","0.09375","0.22070312","55.40625","-28.8125","-7.875"
"1571675504984","639","-0.75878906","-0.029296875","-0.67871094","-114.9375","145.6875","-47.0"
"1571675505074","640","-0.060546875","0.99316406","0.45507812","-87.34375","-20.71875","-77.53125"
"1571675505164","641","0.041015625","0.9501953","0.19238281","-84.625","121.875","-23.28125"
"1571675505284","642","-0.0703125","0.9394531","-0.030273438","-51.28125","46.25","-45.0625"
"1571675505374","643","0.061523438","1.0703125","0.29101562","10.1875","75.90625","-20.59375"
"1571675505464","644","-0.037109375","1.2089844","-0.31835938","3.03125","22.03125","46.90625"
"1571675505584","645","-0.22753906","1.2792969","0.06542969","114.125","-13.8125","166.375"
"1571675505675","646","-0.16503906","0.8847656","0.2939453","33.25","-28.9375","102.15625"
"1571675505764","647","-0.2265625","0.6269531","0.1875","59.875","-178.0625","62.84375"
"1571675505884","648","-0.24023438","0.3779297","-0.06542969","-74.90625","-10.03125","-49.28125"
"1571675505974","649","0.5625","1.6835938","-0.24902344","-24.1875","-15.46875","59.5625"
"1571675506065","650","0.31347656","1.6044922","0.4609375","27.5625","-54.40625","34.59375"
"1571675506184","651","-0.22753906","1.2763672","0.796875","-90.96875","-31.21875","-120.0625"
"1571675506274","652","0.18652344","1.0537109","0.16894531","-146.625","66.09375","-71.5625"
"1571675506365","653","0.053710938","0.80078125","0.16894531","-60.875","-15.53125","-48.90625"
"1571675506484","654","-0.20703125","0.96191406","0.115234375","-45.1875","69.875","-18.9375"
"1571675506574","655","0.16210938","1.3408203","0.62402344","36.46875","-46.84375","-37.0625"
"1571675506695","656","0.00390625","0.93359375","-0.41992188","94.71875","33.625","102.59375"
"1571675506784","657","-0.25683594","1.859375","0.25878906","129.625","-67.875","145.125"
"1571675506874","658","-0.13867188","0.83691406","-0.17382812","16.9375","9.5","112.53125"
"1571675506964","659","-0.6826172","0.25097656","0.20800781","31.125","-120.375","35.6875"
"1571675507084","660","0.37109375","1.03125","-0.99609375","-115.75","-29.0","-90.96875"
"1571675507173","661","-0.4482422","-0.01171875","0.18164062","50.21875","-6.5","3.53125"
"1571675507263","662","-0.8203125","0.053710938","-0.7675781","-76.75","237.59375","-54.40625"
"1571675507384","663","-0.020507812","0.9736328","0.44433594","-111.90625","32.09375","-66.46875"
"1571675507474","664","0.091796875","0.91796875","0.17578125","-97.5","99.96875","-31.8125"
"1571675507565","665","-0.033203125","0.88964844","0.091796875","-57.4375","31.65625","-40.46875"
"1571675507684","666","0.026367188","1.0351562","0.31835938","7.90625","64.0","-25.96875"
"1571675507774","667","0.10058594","1.1904297","0.23925781","-22.125","9.1875","42.34375"
"1571675507864","668","-0.28125","1.1162109","0.0029296875","106.625","61.8125","171.625"
"1571675507984","669","-0.23242188","1.0517578","0.4111328","69.5625","22.375","101.4375"
"1571675508074","670","-0.25878906","0.6152344","0.12890625","50.15625","-125.5625","70.34375"
"1571675508165","671","-0.17285156","0.4248047","-0.041015625","-43.53125","-30.90625","-41.46875"
"1571675508284","672","1.640625","2.0","-0.7626953","-19.25","36.4375","63.40625"
"1571675508374","673","-0.48632812","2.0","0.0146484375","15.25","-113.96875","-65.09375"
"1571675508464","674","-0.22070312","1.1074219","0.37304688","-61.46875","46.5625","-61.0"
"1571675508584","675","0.026367188","0.86816406","0.21679688","-76.1875","-14.84375","-38.78125"
"1571675508674","676","-0.13769531","0.88183594","0.080078125","-47.5","60.53125","-20.46875"
"1571675508765","677","-0.06347656","0.9375","0.15917969","-62.5","33.8125","-45.0625"
"1571675508854","678","0.10449219","1.0810547","0.0859375","-9.0","9.09375","-15.8125"
"1571675508974","679","-0.0546875","1.0830078","0.26953125","48.15625","1.09375","27.09375"
"1571675509064","680","-0.3330078","0.9111328","-0.06640625","121.1875","154.71875","114.125"
"1571675509154","681","-0.34765625","1.0986328","0.27441406","76.8125","-22.125","50.53125"
"1571675509274","682","-0.21777344","0.72558594","0.015625","-15.59375","-12.21875","-9.28125"
"1571675509364","683","-0.05078125","0.88964844","0.059570312","-78.875","-66.0625","-59.09375"
"1571675509454","684","-0.20898438","1.1689453","-0.2578125","6.03125","19.34375","-22.21875"
"1571675509574","685","-0.107421875","0.8466797","0.21875","-7.34375","-10.6875","-11.0"
"1571675509664","686","-0.23925781","0.95703125","0.14257812","-49.5","38.3125","-0.625"
"1571675509754","687","-0.099609375","0.97558594","0.1328125","7.84375","-24.3125","-5.75"
"1571675509874","688","-0.10839844","0.94140625","0.1640625","-8.25","4.375","1.3125"
"1571675509965","689","-0.14257812","0.94628906","0.13085938","3.09375","0.0","-3.125"
"1571675510054","690","-0.15527344","0.9716797","0.12011719","-1.53125","4.75","1.15625"
"1571675510174","691","-0.12402344","0.95410156","0.125","1.4375","1.8125","0.90625"
