"# PDIoT walking data"
"# Start time: 20191021T173514"
"# Group: NaN"
"# Subject: http://192.168.105.11:5000/index?data="
"# Activity type: NaN"
"# Sensor position: NaN"
"# Side of body: Left"
"# Sensor mounting: Body"
"# Number of steps: 10"
"# Notes: "
""
"timestamp","seq","accel_x","accel_y","accel_z","gyro_x","gyro_y","gyro_z"
"1571675714344","0","-0.055664062","0.9667969","0.2109375","-0.0625","-1.0625","-0.5625"
"1571675714463","1","-0.056640625","0.95703125","0.22851562","0.59375","-1.46875","-0.8125"
"1571675714552","2","-0.07324219","0.95214844","0.23046875","1.375","0.40625","-1.34375"
"1571675714642","3","-0.07324219","0.9638672","0.20800781","1.6875","2.125","-0.5625"
"1571675714763","4","-0.06933594","0.96191406","0.20410156","1.375","2.125","-0.3125"
"1571675714883","5","-0.08105469","0.9638672","0.20117188","2.96875","2.71875","0.46875"
"1571675714942","6","-0.07910156","0.9560547","0.203125","0.34375","1.4375","-0.5"
"1571675715063","7","-0.08105469","0.9511719","0.19824219","1.375","2.125","0.28125"
"1571675715152","8","-0.087890625","0.95996094","0.19335938","1.875","1.21875","0.21875"
"1571675715242","9","-0.09863281","0.9550781","0.17871094","1.375","2.4375","-0.3125"
"1571675715364","10","-0.07421875","0.9589844","0.19335938","1.3125","3.21875","0.34375"
"1571675715454","11","-0.0859375","0.96972656","0.19238281","1.375","3.90625","0.53125"
"1571675715545","12","-0.072265625","0.9580078","0.17480469","1.03125","4.0","0.84375"
"1571675715664","13","-0.080078125","0.9511719","0.1796875","1.3125","0.46875","0.28125"
"1571675715752","14","-0.087890625","0.95996094","0.17578125","-0.0625","-0.375","0.03125"
"1571675715843","15","-0.0859375","0.96484375","0.171875","1.21875","0.15625","0.34375"
"1571675715932","16","-0.09277344","0.9658203","0.19140625","1.3125","0.71875","0.40625"
"1571675716052","17","-0.09863281","0.9628906","0.171875","-0.5","1.625","0.15625"
"1571675716144","18","-0.08105469","0.96484375","0.17285156","0.65625","1.875","0.46875"
"1571675716234","19","-0.08886719","0.96484375","0.18066406","0.0","0.84375","0.28125"
"1571675716352","20","-0.08300781","0.9716797","0.16992188","0.53125","0.78125","0.53125"
"1571675716442","21","-0.07128906","0.96191406","0.171875","0.65625","0.21875","0.03125"
"1571675716534","22","-0.095703125","0.95996094","0.17285156","-0.0625","-0.125","0.0"
"1571675716655","23","-0.09082031","0.9658203","0.18359375","0.03125","0.65625","0.28125"
"1571675716744","24","-0.0703125","0.9716797","0.16113281","0.0","2.65625","0.78125"
"1571675716835","25","-0.07421875","0.96484375","0.16503906","0.78125","3.90625","1.21875"
"1571675716952","26","-0.09472656","0.95996094","0.15429688","0.71875","4.375","1.5625"
"1571675717043","27","-0.0859375","0.96875","0.16601562","0.65625","3.90625","1.5"
"1571675717162","28","-0.08984375","0.96484375","0.15625","1.375","3.78125","1.375"
"1571675717255","29","-0.07714844","0.9765625","0.16503906","-0.125","3.59375","1.15625"
"1571675717344","30","-0.08203125","0.9609375","0.16308594","0.90625","3.09375","1.15625"
"1571675717434","31","-0.08496094","0.9609375","0.16796875","0.53125","2.5625","1.15625"
"1571675717554","32","-0.07519531","0.9580078","0.15527344","0.71875","2.65625","0.96875"
"1571675717645","33","-0.078125","0.9638672","0.14355469","0.96875","1.4375","0.65625"
"1571675717733","34","-0.0859375","0.95996094","0.15039062","-0.25","-0.5","0.34375"
"1571675717854","35","-0.07910156","0.9667969","0.1484375","2.125","1.6875","0.65625"
"1571675717944","36","-0.099609375","0.9550781","0.17675781","0.96875","-1.65625","-1.40625"
"1571675718034","37","-0.07324219","0.9785156","0.13769531","0.40625","-0.5","-0.4375"
"1571675718152","38","-0.08691406","0.9628906","0.15527344","1.5","1.75","1.09375"
"1571675718242","39","-0.095703125","0.96972656","0.13671875","0.21875","1.21875","0.40625"
"1571675718332","40","-0.08300781","0.96972656","0.13085938","1.5","0.21875","0.34375"
"1571675718454","41","-0.08984375","0.9716797","0.14453125","-0.0625","0.34375","0.21875"
"1571675718543","42","-0.08984375","0.97265625","0.14648438","0.53125","1.03125","0.65625"
"1571675718635","43","-0.09472656","0.9628906","0.1328125","0.84375","2.5","0.46875"
"1571675718755","44","-0.078125","0.9707031","0.13476562","-0.75","2.96875","1.3125"
"1571675718844","45","-0.09472656","0.97753906","0.13085938","-1.46875","1.625","1.5625"
"1571675718934","46","-0.087890625","0.96972656","0.13085938","-0.25","4.625","2.1875"
"1571675719054","47","-0.08496094","0.96777344","0.15332031","-3.5625","3.40625","1.75"
"1571675719145","48","-0.07910156","0.96777344","0.1328125","-1.40625","14.3125","7.8125"
"1571675719232","49","-0.087890625","0.96191406","0.19824219","-4.65625","2.78125","1.21875"
"1571675719352","50","-0.0703125","0.98046875","0.14160156","-6.0625","-0.25","1.6875"
"1571675719443","51","-0.07519531","0.9589844","0.16796875","-4.65625","0.65625","2.25"
"1571675719534","52","-0.080078125","0.9589844","0.18457031","-7.8125","-0.0625","1.5625"
"1571675719653","53","-0.08203125","0.953125","0.1796875","-7.9375","-0.5625","2.3125"
"1571675719744","54","-0.06640625","0.9638672","0.203125","-8.25","-1.125","2.96875"
"1571675719834","55","-0.08984375","0.95410156","0.21875","-6.125","2.96875","5.0"
"1571675719954","56","-0.051757812","0.95703125","0.21386719","-5.625","4.25","4.5625"
"1571675720044","57","-0.0234375","0.93847656","0.2529297","-12.09375","-7.78125","0.65625"
"1571675720134","58","-0.018554688","0.94628906","0.24316406","-6.125","0.34375","5.90625"
"1571675720255","59","-0.0048828125","0.9296875","0.29003906","-6.1875","11.75","5.59375"
"1571675720342","60","0.076171875","0.9658203","0.27734375","-5.5625","-4.78125","1.15625"
"1571675720433","61","0.034179688","0.9326172","0.27539062","-0.3125","16.59375","4.25"
"1571675720552","62","-0.043945312","0.94140625","0.26367188","-8.0625","23.375","2.5625"
"1571675720642","63","0.07714844","0.93847656","0.27929688","-10.09375","10.96875","-8.8125"
"1571675720732","64","-0.043945312","0.9248047","0.29589844","-9.90625","27.34375","-2.59375"
"1571675720852","65","0.109375","0.98046875","0.27539062","-9.90625","22.6875","-9.46875"
"1571675720974","66","0.064453125","1.1298828","0.31054688","16.34375","11.28125","3.46875"
"1571675721033","67","-0.09765625","1.0068359","-0.12207031","100.3125","72.625","18.71875"
"1571675721153","68","0.06933594","0.99609375","-0.028320312","131.5","36.90625","51.875"
"1571675721243","69","0.16796875","1.2080078","-0.1953125","30.375","81.90625","68.34375"
"1571675721334","70","0.0","0.87890625","-0.107421875","46.875","-94.3125","70.34375"
"1571675721454","71","-0.22167969","0.67089844","-0.12402344","-7.78125","-64.03125","17.4375"
"1571675721544","72","0.3359375","0.81152344","-0.36132812","-27.0","-6.84375","-18.5"
"1571675721633","73","0.13574219","0.8935547","-0.4169922","5.28125","-12.96875","28.1875"
"1571675721751","74","0.6357422","2.0","-1.4570312","-61.0625","-49.75","-24.0"
"1571675721842","75","-0.125","0.87597656","0.2841797","-101.9375","-37.1875","-67.53125"
"1571675721932","76","0.19433594","0.9580078","0.15039062","-55.625","89.9375","-18.15625"
"1571675722053","77","0.05078125","0.859375","0.23925781","-37.5","11.53125","8.84375"
"1571675722143","78","-0.016601562","0.82128906","0.24414062","-31.875","25.5625","-0.3125"
"1571675722233","79","-0.051757812","0.97265625","0.3828125","-54.53125","-11.1875","-40.0"
"1571675722324","80","0.24414062","1.1923828","0.11035156","6.8125","88.5","2.5"
"1571675722443","81","0.34570312","1.2558594","-0.25097656","160.5","45.75","48.4375"
"1571675722534","82","0.14160156","1.4423828","0.6982422","119.0625","-116.53125","87.03125"
"1571675722654","83","0.28515625","0.95996094","-0.028320312","26.34375","52.46875","123.75"
"1571675722745","84","-0.45410156","0.49023438","0.14746094","37.15625","-181.71875","36.78125"
"1571675722833","85","-0.038085938","0.5029297","-0.15917969","-48.0625","40.5","-53.0"
"1571675722924","86","0.6796875","1.5039062","-0.5673828","12.3125","-24.6875","56.875"
"1571675723043","87","-0.10546875","1.4580078","-0.13183594","-23.40625","-7.15625","-41.9375"
"1571675723132","88","-0.12695312","1.21875","0.43945312","-92.65625","-26.0625","-85.90625"
"1571675723224","89","0.28710938","0.8222656","0.029296875","-103.34375","75.3125","-13.03125"
"1571675723343","90","-0.0078125","0.8691406","0.19921875","-41.65625","31.84375","2.5"
"1571675723433","91","-0.08300781","0.84375","0.31054688","-32.3125","29.53125","-23.625"
"1571675723524","92","0.3095703","1.2041016","0.34277344","-26.5","-24.25","-38.40625"
"1571675723642","93","0.3017578","1.1464844","-0.42382812","143.0","98.875","71.34375"
"1571675723733","94","-0.0390625","1.6269531","0.47558594","146.59375","-109.5","101.90625"
"1571675723826","95","0.05078125","0.87109375","-0.018554688","36.53125","58.53125","116.75"
"1571675723943","96","-0.5439453","0.33789062","0.29589844","44.71875","-175.1875","11.71875"
"1571675724032","97","0.13964844","1.0029297","-0.7519531","-149.625","34.03125","-96.875"
"1571675724123","98","-0.46191406","0.08105469","0.35351562","54.5","-49.09375","-21.1875"
"1571675724242","99","-0.62109375","-0.076171875","-0.08496094","29.09375","53.03125","-56.0"
"1571675724332","100","0.18164062","1.0449219","0.6220703","-98.71875","-34.5625","-50.96875"
"1571675724422","101","0.140625","0.9794922","-0.026367188","-75.40625","87.09375","-2.46875"
"1571675724543","102","-0.07910156","0.8613281","0.13769531","-53.375","-15.28125","-29.75"
"1571675724633","103","0.036132812","1.1015625","0.29101562","-42.625","46.5625","-19.84375"
"1571675724723","104","0.1875","1.203125","-0.27148438","124.9375","214.78125","39.46875"
"1571675724844","105","-0.05078125","1.3417969","0.18847656","125.96875","-136.6875","138.28125"
"1571675724932","106","-0.14746094","0.8828125","0.22460938","92.09375","79.75","106.5"
"1571675725023","107","-0.22363281","0.6425781","0.23535156","69.4375","-206.0","54.5625"
"1571675725144","108","-0.17089844","0.29785156","0.06738281","-104.5","-22.46875","-47.8125"
"1571675725232","109","0.24902344","1.0898438","-0.028320312","7.4375","-127.46875","75.59375"
"1571675725322","110","0.27929688","1.5410156","-0.083984375","12.1875","232.90625","45.21875"
"1571675725442","111","-0.016601562","1.2333984","0.63671875","-156.8125","-18.625","-95.0625"
"1571675725532","112","0.08496094","0.9423828","0.048828125","-81.1875","133.28125","-31.625"
"1571675725622","113","0.01953125","0.81347656","0.15625","-75.53125","-2.9375","-41.6875"
"1571675725743","114","0.11328125","1.1679688","0.22851562","-17.46875","72.3125","-16.75"
"1571675725833","115","0.17871094","1.203125","-0.26367188","64.1875","94.84375","31.40625"
"1571675725923","116","-0.07714844","1.2373047","0.25","102.9375","-79.0","155.9375"
"1571675726043","117","-0.14355469","0.91796875","0.2109375","71.875","52.65625","112.28125"
"1571675726133","118","-0.30664062","0.56152344","0.25878906","66.09375","-171.28125","53.03125"
"1571675726223","119","-0.17675781","0.40429688","0.08984375","-116.78125","-20.34375","-77.84375"
"1571675726343","120","0.051757812","0.8154297","0.25097656","17.0","-119.09375","43.6875"
"1571675726432","121","-0.30664062","0.5839844","0.095703125","-16.5625","201.34375","-6.90625"
"1571675726522","122","0.08203125","1.1015625","0.64160156","-140.8125","-30.46875","-72.46875"
"1571675726641","123","0.10644531","1.0302734","0.0234375","-58.3125","156.59375","-1.34375"
"1571675726733","124","-0.09667969","0.9013672","0.12988281","-65.1875","-5.21875","-46.65625"
"1571675726822","125","0.19238281","1.0576172","0.24121094","-4.78125","110.875","-13.5625"
"1571675726941","126","-0.044921875","1.1611328","-0.4345703","162.28125","172.65625","105.8125"
"1571675727034","127","-0.30859375","2.0","0.4609375","123.59375","-124.84375","119.90625"
"1571675727123","128","-0.16113281","0.8027344","0.01953125","33.0625","42.15625","96.1875"
"1571675727243","129","-0.61035156","0.22265625","0.2861328","31.0","-113.0625","18.40625"
"1571675727333","130","0.90722656","1.7167969","-1.171875","-71.4375","-121.0","-80.75"
"1571675727423","131","-0.7939453","0.5839844","-0.046875","-14.90625","-13.25","-34.1875"
"1571675727543","132","-0.2861328","0.359375","0.017578125","-2.03125","164.53125","-64.21875"
"1571675727632","133","0.3203125","0.90234375","0.5097656","-83.09375","-92.90625","-78.8125"
"1571675727722","134","-0.068359375","0.7753906","0.23925781","-70.28125","129.3125","10.84375"
"1571675727842","135","-0.09765625","0.97753906","0.103515625","-41.03125","20.75","-53.375"
"1571675727933","136","0.33203125","1.1191406","0.48632812","20.4375","-34.125","-39.8125"
"1571675728023","137","0.12402344","0.9580078","-0.20703125","119.0625","114.5625","113.6875"
"1571675728143","138","-0.26367188","1.8964844","0.52441406","140.96875","-112.5","106.6875"
"1571675728233","139","-0.14453125","0.7314453","-0.01953125","39.46875","-57.625","95.75"
"1571675728323","140","-0.7265625","0.0546875","0.19335938","0.59375","-79.65625","7.375"
"1571675728413","141","2.0","2.0","-1.3212891","-7.65625","136.40625","73.28125"
"1571675728563","142","-1.2207031","1.5605469","-0.5449219","-232.5","-120.3125","-26.875"
"1571675728623","143","-0.2861328","1.1484375","0.44921875","-121.65625","23.1875","-89.5"
"1571675728713","144","0.10546875","0.9794922","0.33496094","-107.5","-38.53125","-72.9375"
"1571675728832","145","0.02734375","0.921875","0.08105469","-64.03125","92.5625","-28.03125"
"1571675728922","146","-0.09472656","0.93066406","0.1953125","-40.0","-15.6875","-50.375"
"1571675729012","147","0.52734375","1.4570312","0.41796875","15.0","-75.53125","-22.46875"
"1571675729132","148","-0.33398438","0.9453125","-0.11035156","129.8125","65.53125","135.25"
"1571675729223","149","-0.23828125","1.6162109","0.63964844","144.03125","46.3125","103.875"
"1571675729313","150","-0.23242188","0.65527344","0.19433594","71.46875","-175.5","83.1875"
"1571675729434","151","-0.5498047","0.032226562","0.26171875","-66.1875","-26.375","-27.96875"
"1571675729523","152","1.0146484","2.0","-0.33691406","-60.1875","-12.65625","65.0"
"1571675729643","153","-0.1953125","1.7929688","0.17089844","83.71875","55.21875","-23.875"
"1571675729733","154","-0.1640625","1.3369141","0.5371094","-127.21875","15.90625","-90.34375"
"1571675729823","155","0.103515625","0.9013672","0.2578125","-150.34375","-7.28125","-39.1875"
"1571675729913","156","0.01171875","0.8769531","0.08300781","-79.71875","82.1875","-34.6875"
"1571675730032","157","0.095703125","1.1728516","0.27734375","-10.09375","25.1875","-44.03125"
"1571675730122","158","0.20019531","1.2011719","-0.5058594","92.21875","107.53125","37.15625"
"1571675730212","159","-0.064453125","1.4765625","0.14746094","123.8125","-130.9375","163.5625"
"1571675730332","160","-0.14648438","0.7109375","0.09667969","89.71875","72.375","127.1875"
"1571675730423","161","-0.39453125","0.47070312","0.2939453","66.6875","-174.875","37.28125"
"1571675730513","162","-0.23242188","0.6435547","-0.140625","-105.65625","-50.0625","-86.9375"
"1571675730633","163","-0.28125","0.61621094","0.27734375","57.40625","-73.75","12.375"
"1571675730723","164","-0.44433594","0.16601562","-0.5136719","-39.375","201.875","-40.125"
"1571675730843","165","0.087890625","0.9609375","0.35839844","-127.8125","-14.125","-65.125"
"1571675730934","166","0.009765625","0.8310547","0.19238281","-82.96875","62.0625","-25.34375"
"1571675731022","167","-0.047851562","0.9482422","0.17773438","-82.15625","59.6875","-37.3125"
"1571675731113","168","0.16210938","1.0419922","0.328125","11.53125","40.28125","-31.8125"
"1571675731232","169","0.10449219","1.1386719","-0.4921875","131.5","121.125","104.34375"
"1571675731322","170","-0.2998047","2.0","0.42871094","127.4375","-177.03125","142.5625"
"1571675731412","171","-0.13183594","0.70703125","0.041992188","39.71875","-47.6875","106.78125"
"1571675731532","172","-0.8691406","-0.017578125","0.2783203","15.78125","-83.875","26.84375"
"1571675731623","173","2.0","2.0","-1.8789062","-23.8125","-63.625","-32.1875"
"1571675731713","174","-1.2685547","1.1914062","-0.23339844","-89.3125","-64.40625","-16.625"
"1571675731833","175","-0.36132812","0.94433594","0.57421875","-79.0625","18.78125","-82.21875"
"1571675731923","176","0.1640625","0.9160156","0.3828125","-126.46875","-6.65625","-99.9375"
"1571675732013","177","0.07128906","0.82421875","0.099609375","-106.03125","125.78125","-12.34375"
"1571675732133","178","-0.0068359375","1.0800781","0.10253906","-29.75","-17.53125","-60.6875"
"1571675732223","179","0.39160156","1.2802734","0.0","51.9375","19.21875","15.1875"
"1571675732313","180","-0.29882812","1.3095703","-0.04296875","133.78125","-54.46875","194.375"
"1571675732432","181","-0.29589844","0.85253906","0.2685547","46.75","112.40625","122.96875"
"1571675732522","182","-0.37890625","0.41308594","0.3232422","74.15625","-166.21875","47.96875"
"1571675732612","183","-0.3203125","0.3544922","0.16796875","-117.875","-31.15625","-73.4375"
"1571675732733","184","-0.15136719","0.2705078","0.27441406","67.96875","-73.6875","15.5625"
"1571675732823","185","-0.7314453","0.31054688","-0.16210938","26.53125","128.40625","-34.5"
"1571675732912","186","-0.15039062","0.8720703","0.49023438","-160.71875","-44.3125","-73.8125"
"1571675733032","187","0.21484375","0.82714844","0.21484375","-108.59375","180.34375","-26.75"
"1571675733122","188","-0.14453125","1.0097656","0.07714844","-52.1875","13.78125","-47.5625"
"1571675733213","189","0.63964844","1.1572266","0.49316406","0.78125","-89.90625","-36.46875"
"1571675733333","190","-0.07910156","0.91503906","-0.17480469","115.09375","93.75","131.8125"
"1571675733422","191","-0.3857422","2.0","0.8457031","202.0","107.46875","106.84375"
"1571675733513","192","-0.2890625","0.4169922","0.2109375","59.625","-89.5","90.0"
"1571675733632","193","-0.7783203","-0.14746094","0.43164062","-33.34375","-70.3125","-14.53125"
"1571675733722","194","0.3564453","2.0","-0.08496094","-84.0","-112.875","48.09375"
"1571675733812","195","-0.23046875","0.7988281","-0.23242188","-91.9375","206.46875","7.8125"
"1571675733932","196","-0.15136719","1.0957031","0.68652344","-166.53125","-1.96875","-111.46875"
"1571675734022","197","0.328125","0.9296875","0.23242188","-150.34375","146.59375","-44.03125"
"1571675734113","198","-0.11425781","1.0458984","0.08984375","-67.21875","90.5","-41.53125"
"1571675734233","199","0.6015625","1.0429688","0.5019531","21.65625","-54.09375","-37.25"
"1571675734323","200","0.076171875","1.0771484","0.0107421875","121.875","77.25","129.8125"
"1571675734413","201","-0.59765625","2.0","0.70996094","219.65625","132.90625","106.90625"
"1571675734533","202","-0.3720703","0.5097656","0.23828125","60.03125","-123.71875","96.125"
"1571675734623","203","-0.6875","-0.18652344","0.45996094","-45.375","-36.875","-11.0"
"1571675734713","204","0.33691406","2.0","-0.14257812","-72.40625","-115.125","52.0625"
"1571675734802","205","-0.0048828125","1.1416016","-0.18945312","-82.21875","232.21875","13.03125"
"1571675734923","206","-0.18847656","1.3144531","0.7939453","-187.09375","22.125","-117.1875"
"1571675735012","207","0.2763672","1.0029297","0.28808594","-190.875","104.96875","-55.0"
"1571675735133","208","-0.13476562","1.03125","-0.15136719","-59.34375","88.65625","-53.90625"
"1571675735224","209","0.640625","1.046875","0.50683594","27.8125","-53.125","-18.5625"
"1571675735313","210","-0.064453125","1.1025391","-0.123046875","101.4375","90.3125","145.125"
"1571675735403","211","-0.5683594","2.0","0.74902344","206.15625","157.875","117.90625"
"1571675735523","212","-0.15820312","0.47070312","0.35839844","80.84375","-177.625","95.03125"
"1571675735613","213","-0.70214844","-0.31640625","0.5185547","-67.34375","-27.25","-10.28125"
"1571675735703","214","0.24609375","1.4824219","-0.19335938","-33.34375","-121.46875","28.5625"
"1571675735823","215","-0.44726562","0.9121094","0.01171875","-4.78125","124.375","-12.15625"
"1571675735913","216","-0.24511719","1.0488281","0.50097656","-189.59375","78.53125","-95.09375"
"1571675736002","217","0.3310547","1.0380859","0.45410156","-134.34375","79.15625","-54.875"
"1571675736122","218","-0.13378906","1.1767578","-0.009765625","-22.0","5.71875","-56.34375"
"1571675736212","219","0.7128906","1.0576172","0.37890625","13.09375","-42.0625","-15.625"
"1571675736302","220","-0.060546875","0.88671875","0.038085938","96.40625","52.09375","146.71875"
"1571675736423","221","-0.5595703","2.0","0.703125","230.34375","217.875","116.0625"
"1571675736513","222","-0.3642578","0.40722656","0.31640625","67.96875","-135.5","74.375"
"1571675736602","223","-0.609375","-0.072265625","0.5078125","-48.1875","-64.71875","-48.46875"
"1571675736723","224","0.265625","0.9873047","-0.005859375","10.3125","-96.8125","30.1875"
"1571675736812","225","-0.609375","0.390625","-0.35742188","31.65625","171.6875","-24.96875"
"1571675736902","226","-0.18652344","0.9267578","0.61035156","-179.21875","-6.59375","-96.6875"
"1571675737021","227","0.4111328","0.86816406","0.17773438","-135.15625","166.0","-35.21875"
"1571675737111","228","-0.14453125","1.0595703","-0.078125","-38.03125","0.78125","-57.3125"
"1571675737202","229","0.6044922","1.3857422","-0.11425781","15.90625","-22.96875","8.84375"
"1571675737322","230","-0.21484375","1.4228516","0.022460938","138.84375","-74.90625","192.625"
"1571675737413","231","-0.53515625","0.7734375","0.42773438","32.28125","82.25","131.875"
"1571675737502","232","-0.46679688","0.2939453","0.3173828","53.09375","-167.875","45.9375"
"1571675737623","233","-0.43359375","0.6640625","-0.61816406","-114.9375","-107.0","-104.8125"
"1571675737713","234","-0.67578125","0.48242188","0.43359375","50.46875","-70.3125","-1.53125"
"1571675737803","235","-0.6123047","0.61035156","0.5371094","18.0625","6.9375","-81.4375"
"1571675737923","236","-0.10644531","0.90722656","0.33398438","-184.71875","10.0","-95.28125"
"1571675738013","237","0.53125","0.7236328","-0.40722656","-7.78125","248.875","-52.625"
"1571675738103","238","-0.091796875","1.2294922","0.16699219","-7.9375","-75.875","-55.875"
"1571675738223","239","0.01171875","1.3691406","-1.0195312","115.65625","87.6875","38.0"
"1571675738313","240","0.0078125","1.9091797","0.1640625","96.40625","-102.625","226.5625"
"1571675738402","241","-0.2861328","0.6044922","-0.71191406","-23.5625","39.40625","141.84375"
"1571675738522","242","-0.7607422","0.19824219","0.40234375","77.5","-163.65625","40.09375"
"1571675738612","243","0.34472656","1.3447266","-2.0","-63.84375","-202.40625","-111.59375"
"1571675738703","244","-0.6845703","0.7050781","0.16503906","44.28125","-76.125","-50.0625"
"1571675738823","245","-0.54785156","0.6347656","0.5048828","-28.21875","-41.34375","-65.5625"
"1571675738913","246","0.0146484375","0.81933594","0.3359375","-211.125","61.375","-111.03125"
"1571675739002","247","0.6220703","0.73828125","-0.3203125","-19.53125","148.375","-51.28125"
"1571675739122","248","-0.028320312","1.2246094","0.42382812","-26.1875","-37.0","-30.53125"
"1571675739213","249","-0.047851562","1.8701172","-1.7626953","216.34375","112.84375","43.3125"
"1571675739303","250","-0.119140625","1.859375","0.015625","96.34375","-80.15625","232.71875"
"1571675739423","251","-0.26171875","0.6386719","-0.45507812","5.84375","-63.125","129.3125"
"1571675739514","252","-0.5576172","0.056640625","0.2998047","51.75","-154.6875","30.8125"
"1571675739602","253","1.3466797","2.0","-2.0","-42.4375","-315.25","-118.96875"
"1571675739722","254","-0.9042969","0.8017578","0.2685547","33.8125","-15.09375","-24.90625"
"1571675739812","255","-0.42871094","0.82421875","0.5107422","-49.875","-49.03125","-92.59375"
"1571675739902","256","0.15625","0.8251953","0.4169922","-177.4375","3.40625","-125.4375"
"1571675740023","257","0.16601562","0.85839844","-0.28222656","74.375","134.625","-66.90625"
"1571675740113","258","-0.047851562","1.2304688","0.45117188","-12.84375","68.96875","-31.3125"
"1571675740203","259","-0.06347656","1.2646484","-0.4169922","78.96875","104.90625","76.03125"
"1571675740323","260","-0.25195312","2.0","0.115234375","93.78125","-74.84375","243.5625"
"1571675740413","261","-0.18554688","0.82714844","0.0126953125","44.1875","-68.0","125.34375"
"1571675740503","262","-0.63378906","0.078125","0.3154297","70.78125","-164.5625","26.0"
"1571675740623","263","1.0527344","2.0","-2.0","-46.65625","-253.5","-118.5"
"1571675740713","264","-1.2236328","1.1513672","-0.30078125","-8.125","-96.09375","-26.03125"
"1571675740802","265","-0.56933594","0.9873047","0.69433594","-15.53125","-38.59375","-112.5"
"1571675740922","266","0.17871094","0.9453125","0.38476562","-193.0625","-17.46875","-126.1875"
"1571675741011","267","0.07714844","0.94921875","-0.41601562","126.03125","229.71875","-51.78125"
"1571675741102","268","-0.14648438","1.171875","0.41308594","0.53125","136.65625","-11.0"
"1571675741193","269","0.02734375","1.3554688","-0.6982422","86.46875","96.90625","65.90625"
"1571675741314","270","-0.27929688","1.8623047","-0.0078125","101.59375","-60.375","240.15625"
"1571675741403","271","-0.024414062","0.6660156","-0.25195312","22.3125","-57.375","121.1875"
"1571675741493","272","-0.65527344","-0.040039062","0.28125","48.9375","-160.78125","51.25"
"1571675741612","273","0.7470703","1.953125","-2.0","-44.09375","-272.0625","-123.5"
"1571675741703","274","-0.9394531","0.79589844","0.19433594","16.53125","2.5","-15.40625"
"1571675741792","275","-0.40039062","0.7919922","0.5058594","-56.21875","-17.34375","-108.28125"
"1571675741913","276","0.09375","0.80371094","0.3544922","-191.1875","103.1875","-115.125"
"1571675742001","277","0.041015625","0.87890625","-0.32421875","30.125","169.34375","-61.90625"
"1571675742121","278","-0.08105469","1.2392578","0.36816406","-14.84375","41.1875","-40.0"
"1571675742241","279","0.18652344","1.3466797","-0.2998047","102.71875","116.5625","92.5625"
"1571675742301","280","-0.25390625","2.0","0.16113281","74.03125","-130.03125","225.09375"
"1571675742393","281","-0.14160156","0.7314453","0.0078125","26.96875","-93.71875","140.0"
"1571675742513","282","-0.8232422","0.033203125","0.2890625","46.6875","-171.71875","36.96875"
"1571675742604","283","2.0","2.0","-0.89160156","3.84375","-51.34375","21.84375"
"1571675742693","284","-0.3330078","2.0","0.0234375","-111.96875","-38.90625","9.125"
"1571675742813","285","-0.61035156","1.4355469","1.0029297","-107.6875","62.53125","-154.6875"
"1571675742903","286","0.26367188","1.1210938","0.375","-255.09375","43.6875","-116.15625"
"1571675742993","287","-0.02734375","0.86328125","0.041015625","-62.09375","76.15625","-55.0625"
"1571675743112","288","0.49316406","1.1279297","0.4658203","15.65625","29.59375","-31.3125"
"1571675743203","289","0.06542969","1.0800781","0.11230469","109.78125","85.25","134.375"
"1571675743292","290","-0.6542969","2.0","0.47460938","153.625","-2.625","197.5625"
"1571675743412","291","-0.26757812","0.42285156","0.35742188","57.84375","-127.75","104.53125"
"1571675743503","292","-0.75","-0.10449219","0.61816406","10.65625","-63.375","-8.25"
"1571675743592","293","0.48828125","2.0","-0.13476562","-68.8125","-100.25","46.96875"
"1571675743713","294","-0.21191406","1.0742188","0.421875","-7.28125","-6.5","-10.9375"
"1571675743801","295","-0.24609375","1.3496094","0.7998047","-177.5625","-19.125","-109.21875"
"1571675743893","296","0.25976562","0.85839844","0.21386719","-197.28125","174.3125","-47.25"
"1571675744013","297","-0.20507812","1.0576172","-0.125","-43.65625","20.625","-54.09375"
"1571675744103","298","0.44140625","1.0400391","0.40429688","31.90625","-64.65625","-27.59375"
"1571675744193","299","-0.06347656","1.0488281","9.765625E-4","82.4375","21.84375","172.03125"
"1571675744313","300","-0.6767578","2.0","0.91308594","215.3125","282.34375","154.46875"
"1571675744402","301","-0.2705078","0.38867188","0.2939453","63.15625","-185.1875","76.78125"
"1571675744522","302","-0.8222656","-0.18359375","0.57421875","-41.40625","32.8125","-32.59375"
"1571675744613","303","0.2783203","1.0214844","-0.19824219","25.9375","-116.40625","14.09375"
"1571675744702","304","-0.8544922","0.17675781","-0.45703125","10.46875","92.875","-26.375"
"1571675744793","305","-0.18359375","1.1806641","0.75390625","-213.625","40.6875","-99.5625"
"1571675744913","306","0.3984375","0.84375","0.14453125","-180.25","152.34375","-54.34375"
"1571675745003","307","-0.10546875","1.0585938","0.04296875","-60.1875","44.90625","-50.90625"
"1571675745092","308","0.40527344","1.3574219","0.4091797","28.0","-49.40625","0.34375"
"1571675745213","309","-0.08984375","1.0488281","0.27148438","90.5","-37.1875","186.15625"
"1571675745304","310","-0.50878906","1.4960938","0.8535156","128.65625","180.59375","142.5625"
"1571675745393","311","-0.27246094","0.28222656","0.1953125","80.625","-209.0","83.125"
"1571675745513","312","-0.5800781","0.26367188","0.033203125","-88.03125","-35.21875","-70.9375"
"1571675745603","313","0.18261719","-0.11328125","0.5576172","76.71875","-77.09375","-7.40625"
"1571675745692","314","-0.48046875","-0.1484375","0.62109375","66.28125","-159.9375","-57.8125"
"1571675745812","315","-0.09472656","1.0195312","0.5566406","-212.1875","-107.4375","-116.15625"
"1571675745902","316","0.0","0.7470703","-0.46484375","4.75","333.0","-72.03125"
"1571675745993","317","-0.37304688","1.0488281","-0.13183594","-28.75","46.1875","-38.09375"
"1571675746112","318","0.31640625","1.6425781","-0.7578125","78.46875","7.5","35.75"
"1571675746203","319","-0.2685547","1.5078125","0.037109375","100.03125","-81.875","220.6875"
"1571675746293","320","-0.25097656","0.6533203","-0.43652344","-26.8125","-95.15625","139.21875"
"1571675746413","321","-0.4921875","0.12011719","0.24414062","75.3125","-193.0625","57.0"
"1571675746503","322","0.06933594","1.2871094","-1.9863281","-76.4375","-147.96875","-92.1875"
"1571675746593","323","-0.6386719","0.33691406","0.4794922","61.5625","-59.34375","-36.21875"
"1571675746712","324","-0.5234375","0.421875","0.6699219","-1.96875","-0.875","-85.46875"
"1571675746801","325","0.025390625","0.890625","0.35839844","-217.84375","-68.0625","-131.1875"
"1571675746891","326","0.091796875","0.49804688","-0.3935547","-21.25","177.53125","-57.09375"
"1571675747013","327","-0.00390625","1.2382812","0.44726562","-0.75","91.21875","-39.1875"
"1571675747102","328","-0.009765625","1.3261719","-0.48535156","93.5625","56.3125","93.4375"
"1571675747192","329","-0.45507812","2.0","0.0107421875","106.1875","-45.90625","261.59375"
"1571675747313","330","-0.21972656","0.6689453","0.08886719","26.96875","-57.75","122.78125"
"1571675747404","331","-0.89941406","-0.140625","0.28808594","22.75","-110.90625","18.40625"
"1571675747494","332","2.0","2.0","-1.296875","5.21875","112.15625","113.21875"
"1571675747612","333","-1.0712891","2.0","-0.030273438","-235.4375","-49.75","-40.84375"
"1571675747702","334","-0.63671875","1.2900391","0.7285156","-75.40625","88.96875","-136.25"
"1571675747793","335","0.2529297","0.98046875","0.41992188","-165.78125","-17.65625","-120.8125"
"1571675747883","336","-0.038085938","1.1523438","-0.49316406","146.28125","346.3125","-53.84375"
"1571675748002","337","0.30664062","1.1728516","0.6074219","25.75","82.3125","-35.34375"
"1571675748092","338","0.19238281","1.3818359","0.08203125","117.78125","29.09375","140.25"
"1571675748182","339","-0.5595703","2.0","0.51464844","181.0","-3.8125","184.125"
"1571675748302","340","-0.23632812","0.44335938","0.3515625","48.5","-92.90625","114.96875"
"1571675748393","341","-0.8798828","-0.13378906","0.3779297","-2.34375","-78.125","-1.25"
"1571675748482","342","1.4648438","2.0","-0.14453125","-131.4375","170.6875","89.21875"
"1571675748603","343","-0.22949219","2.0","0.92089844","18.40625","60.71875","30.6875"
"1571675748693","344","-0.4326172","1.3955078","0.89746094","-154.625","55.71875","-148.28125"
"1571675748782","345","0.3232422","0.9707031","0.27148438","-204.1875","78.90625","-89.25"
"1571675748903","346","-0.08105469","1.0019531","0.025390625","-21.625","62.53125","-57.15625"
"1571675748993","347","0.25878906","1.0869141","0.39160156","28.84375","47.46875","-28.6875"
"1571675749112","348","0.16210938","1.1357422","0.0","127.5625","54.1875","130.21875"
"1571675749202","349","-0.48339844","2.0","0.45898438","132.5625","-39.625","194.1875"
"1571675749292","350","-0.37402344","0.5859375","0.18359375","23.25","-87.59375","115.71875"
"1571675749382","351","-0.97265625","-0.09765625","0.36816406","20.25","-82.15625","12.625"
"1571675749503","352","2.0","2.0","-0.8701172","-71.375","235.8125","152.8125"
"1571675749596","353","-0.19238281","2.0","-0.890625","-285.21875","-111.71875","-38.28125"
"1571675749683","354","-0.58203125","1.3808594","0.88378906","-73.75","27.21875","-122.4375"
"1571675749803","355","0.18261719","0.9638672","0.31054688","-181.96875","41.5","-99.625"
"1571675749893","356","0.05078125","0.7548828","-0.16992188","-42.125","105.40625","-65.9375"
"1571675749983","357","-0.07421875","1.2851562","0.5332031","-0.9375","72.6875","-31.625"
"1571675750103","358","-0.026367188","1.3496094","-0.375","79.5625","91.0625","88.53125"
"1571675750193","359","-0.25390625","1.9306641","0.036132812","71.875","-90.96875","227.59375"
"1571675750283","360","-0.21289062","0.7167969","-0.25195312","29.40625","-11.375","132.125"
"1571675750402","361","-0.7001953","0.13769531","0.32128906","79.6875","-184.65625","35.9375"
"1571675750492","362","0.44628906","1.4492188","-2.0","-54.28125","-184.53125","-86.125"
"1571675750582","363","-0.59472656","0.42285156","0.24414062","23.78125","-27.90625","-43.15625"
"1571675750703","364","-0.4326172","0.5751953","0.3486328","14.75","14.875","-86.0625"
"1571675750793","365","-0.0546875","0.8701172","0.35253906","-194.28125","19.15625","-118.25"
"1571675750883","366","0.1171875","0.70996094","0.16015625","-106.78125","177.53125","-35.15625"
"1571675751003","367","-0.18652344","1.0830078","0.12011719","-32.0","35.75","-48.65625"
"1571675751093","368","0.4345703","1.1738281","-0.17480469","35.1875","-25.40625","3.53125"
"1571675751182","369","-0.17480469","1.4248047","0.16015625","83.0","-112.9375","212.875"
"1571675751303","370","-0.59472656","0.9375","0.7871094","3.90625","40.8125","150.0"
"1571675751393","371","-0.5263672","0.3408203","0.29882812","99.46875","-204.65625","69.3125"
"1571675751483","372","-0.47753906","0.31640625","-0.095703125","-115.875","-10.15625","-94.4375"
"1571675751602","373","0.016601562","0.064453125","0.30566406","62.90625","-43.53125","-19.1875"
"1571675751691","374","-0.7705078","-0.11035156","-0.08984375","16.53125","35.875","-37.90625"
"1571675751783","375","-0.033203125","0.9042969","0.5703125","-204.71875","-104.5","-88.40625"
"1571675751902","376","0.064453125","0.76171875","-0.0546875","-82.65625","247.46875","-55.625"
"1571675751992","377","-0.19628906","1.0761719","-0.07714844","-61.59375","44.34375","-53.96875"
"1571675752082","378","0.50878906","1.4267578","-0.10839844","23.4375","-31.21875","2.1875"
"1571675752203","379","-0.28710938","1.1826172","0.047851562","92.03125","-36.09375","210.0"
"1571675752293","380","-0.63378906","1.0771484","0.4873047","21.15625","35.375","144.21875"
"1571675752383","381","-0.38671875","0.19824219","0.34375","90.125","-211.625","52.53125"
"1571675752503","382","-0.43164062","0.23828125","0.005859375","-87.1875","-17.40625","-83.03125"
"1571675752593","383","0.12597656","0.14257812","0.28320312","82.375","-134.34375","-0.125"
"1571675752683","384","-0.671875","-0.013671875","-0.17382812","-22.21875","64.5625","-36.875"
"1571675752802","385","-0.1875","0.8232422","0.43847656","-184.46875","28.4375","-104.375"
"1571675752892","386","0.31445312","0.8623047","0.31152344","-134.78125","140.84375","-73.375"
"1571675752982","387","-0.16308594","0.9277344","0.040039062","-59.71875","19.6875","-51.84375"
"1571675753103","388","0.5917969","1.3105469","0.4296875","6.09375","-48.125","-21.9375"
"1571675753193","389","-0.109375","1.0761719","0.013671875","69.125","35.5","174.78125"
"1571675753282","390","-0.7841797","2.0","0.96191406","207.5625","228.25","161.78125"
"1571675753403","391","-0.33496094","0.35351562","0.30273438","64.625","-152.3125","85.9375"
"1571675753493","392","-0.6455078","-0.2265625","0.33398438","-72.71875","-20.46875","-24.75"
"1571675753583","393","0.0146484375","1.2158203","-0.38085938","5.1875","-117.09375","8.21875"
"1571675753702","394","-1.6601562","0.7470703","-2.0","-16.5625","287.46875","-6.0"
"1571675753792","395","-0.018554688","0.9921875","0.6484375","-185.0625","-52.125","-115.0"
"1571675753883","396","0.20800781","0.84472656","0.072265625","-135.625","110.34375","-75.46875"
"1571675754002","397","-0.12695312","0.96875","0.07714844","-83.5","96.71875","-38.28125"
"1571675754092","398","0.60839844","1.0869141","0.51171875","41.4375","-126.71875","-46.9375"
"1571675754182","399","0.19921875","1.1992188","0.09375","114.71875","-2.15625","124.5"
"1571675754272","400","-0.6982422","2.0","0.7050781","200.78125","173.375","171.4375"
"1571675754393","401","-0.20605469","0.5175781","0.36328125","51.3125","-124.40625","116.125"
"1571675754483","402","-0.91796875","-0.20214844","0.49414062","-11.3125","-63.5","-1.65625"
"1571675754603","403","0.5878906","2.0","-0.14453125","-92.0","-71.1875","47.21875"
"1571675754693","404","0.3154297","1.3496094","0.35253906","-58.71875","51.375","13.40625"
"1571675754783","405","-0.39941406","1.3642578","0.7558594","-119.28125","-23.75","-136.78125"
"1571675754873","406","0.31640625","1.0273438","0.40820312","-170.59375","82.125","-79.0625"
"1571675754993","407","-0.026367188","0.7832031","-0.18652344","-77.03125","95.6875","-68.4375"
"1571675755082","408","0.46484375","1.0820312","0.4716797","23.78125","12.25","-31.15625"
"1571675755172","409","0.059570312","1.1386719","-0.0546875","102.09375","46.5","147.3125"
"1571675755292","410","-0.6328125","2.0","0.58203125","189.875","78.40625","156.53125"
"1571675755383","411","-0.36035156","0.390625","0.23535156","51.75","-90.53125","98.25"
"1571675755472","412","-0.91503906","-0.19433594","0.30859375","-21.875","-39.1875","-4.34375"
"1571675755593","413","0.6064453","2.0","-0.20410156","-114.9375","-35.84375","55.78125"
"1571675755683","414","0.68652344","1.9501953","0.28515625","-91.25","13.0","12.625"
"1571675755772","415","-0.41308594","1.3271484","0.7578125","-122.09375","25.5","-123.3125"
"1571675755923","416","0.18261719","1.0292969","0.27148438","-178.90625","72.8125","-97.90625"
"1571675755983","417","-0.0625","0.9111328","-0.2763672","2.3125","152.75","-69.0"
"1571675756073","418","0.026367188","1.2216797","0.4501953","27.15625","120.40625","-21.625"
"1571675756193","419","0.21582031","1.2148438","-0.19140625","113.5625","72.5625","99.09375"
"1571675756283","420","-0.3671875","2.0","0.19140625","141.59375","-33.78125","225.15625"
"1571675756372","421","-0.08984375","0.7402344","0.055664062","20.84375","-85.15625","125.40625"
"1571675756492","422","-0.9736328","-0.125","0.390625","32.15625","-128.8125","37.875"
"1571675756582","423","2.0","2.0","-1.0869141","-8.0","-16.125","56.8125"
"1571675756672","424","-0.2841797","1.7773438","-0.4345703","-230.96875","-122.40625","-28.34375"
"1571675756792","425","-0.48046875","1.2402344","0.57714844","-102.3125","-6.96875","-115.4375"
"1571675756883","426","0.11035156","0.85058594","0.37890625","-196.25","50.8125","-124.15625"
"1571675756972","427","-0.015625","1.0732422","-0.61035156","165.6875","283.5","-67.71875"
"1571675757092","428","0.028320312","1.3242188","0.48046875","-0.1875","104.84375","-26.75"
"1571675757182","429","0.16015625","1.1845703","-0.20019531","121.75","49.71875","77.8125"
"1571675757272","430","-0.40625","2.0","0.049804688","135.90625","-28.40625","228.8125"
"1571675757393","431","-0.07324219","0.5888672","0.038085938","17.5","-28.65625","132.8125"
"1571675757483","432","-0.74902344","-0.119140625","0.35351562","46.1875","-153.9375","28.71875"
"1571675757572","433","2.0","2.0","-1.4960938","1.4375","107.34375","118.5625"
"1571675757692","434","-0.11621094","2.0","-0.123046875","-262.15625","-65.3125","6.6875"
"1571675757782","435","-0.5878906","1.4931641","0.9296875","-109.8125","27.09375","-176.59375"
"1571675757872","436","0.1640625","0.9589844","0.27929688","-180.6875","84.15625","-125.0625"
"1571675757993","437","0.016601562","1.0654297","0.19433594","-21.75","23.65625","-58.90625"
"1571675758083","438","0.41992188","1.1513672","0.546875","23.90625","18.65625","-44.875"
"1571675758203","439","0.08886719","1.1591797","0.16699219","118.8125","86.53125","123.6875"
"1571675758293","440","-0.5058594","2.0","0.29882812","106.1875","-85.09375","209.53125"
"1571675758383","441","-0.328125","0.4921875","0.22753906","36.375","-84.5","110.65625"
"1571675758473","442","-0.8984375","-0.140625","0.47265625","15.0","-94.125","6.46875"
"1571675758593","443","0.9970703","2.0","-0.2685547","-88.875","49.0","82.9375"
"1571675758683","444","0.13476562","2.0","0.13574219","-51.90625","37.28125","-36.28125"
"1571675758772","445","-0.5185547","1.5966797","0.81347656","-122.6875","70.65625","-142.15625"
"1571675758892","446","0.25683594","1.0927734","0.38867188","-227.1875","51.375","-107.0625"
"1571675758983","447","-0.038085938","0.7001953","-0.09667969","-5.6875","132.3125","-70.09375"
"1571675759073","448","0.45996094","1.2832031","0.47851562","7.8125","87.375","-41.59375"
"1571675759193","449","0.09765625","1.2890625","-0.0859375","139.875","21.59375","104.21875"
"1571675759287","450","-0.47558594","2.0","0.0126953125","121.5625","-53.90625","233.5625"
"1571675759372","451","-0.3671875","0.5888672","0.20507812","38.9375","-45.71875","138.21875"
"1571675759492","452","-1.0136719","-0.17675781","0.35546875","39.71875","-88.03125","36.53125"
"1571675759582","453","2.0","2.0","-2.0","39.78125","-48.28125","-20.53125"
"1571675759674","454","-2.0","2.0","-0.8574219","-167.75","-7.78125","-15.15625"
"1571675759793","455","-0.34179688","0.8183594","0.5097656","-68.0","19.15625","-130.4375"
"1571675759883","456","0.13085938","0.828125","0.22851562","-212.65625","72.5625","-116.65625"
"1571675759972","457","-0.036132812","0.6074219","-0.078125","-66.0","13.90625","-77.59375"
"1571675760092","458","-0.24023438","1.1523438","0.055664062","-26.4375","79.28125","-41.875"
"1571675760182","459","0.16503906","1.4013672","-0.33984375","84.34375","84.75","69.1875"
"1571675760272","460","-0.6035156","2.0","-0.04296875","105.28125","-36.875","269.625"
"1571675760393","461","0.0068359375","0.79296875","-0.055664062","53.375","-63.625","132.0"
"1571675760483","462","-0.5683594","0.05078125","0.4013672","61.6875","-156.25","44.65625"
"1571675760573","463","0.015625","1.1357422","-1.7617188","-94.5","-211.9375","-104.4375"
"1571675760663","464","-0.6171875","0.0390625","0.3798828","82.3125","-66.375","-23.75"
"1571675760783","465","-0.42089844","0.056640625","0.52246094","53.5","23.0625","-63.5"
"1571675760873","466","0.0","0.8496094","0.29785156","-224.125","-25.15625","-98.71875"
"1571675760963","467","0.13476562","0.7470703","0.06738281","-81.5625","192.25","-35.46875"
"1571675761083","468","-0.13867188","0.98046875","0.14453125","-27.125","24.8125","-43.90625"
"1571675761172","469","0.6591797","1.2802734","0.171875","12.4375","-63.96875","-6.25"
"1571675761262","470","-0.03515625","1.1376953","0.053710938","77.625","-6.375","179.90625"
"1571675761382","471","-0.82128906","1.4628906","0.62402344","145.25","257.125","147.1875"
"1571675761472","472","-0.36816406","0.45214844","0.28808594","68.15625","-135.9375","66.75"
"1571675761593","473","-0.6621094","0.052734375","0.1875","-31.375","-45.5","-11.5"
"1571675761682","474","1.1933594","2.0","-0.43945312","-66.96875","23.59375","56.5625"
"1571675761773","475","0.36035156","2.0","0.5859375","-40.96875","-78.125","-15.40625"
"1571675761862","476","-0.47460938","1.4570312","0.6464844","-65.4375","57.78125","-133.5"
"1571675761982","477","0.21191406","0.8769531","0.041015625","-177.5","146.03125","-88.28125"
"1571675762072","478","0.04296875","0.7753906","0.07128906","-78.5","-9.53125","-72.59375"
"1571675762162","479","-0.20800781","0.9589844","0.13574219","-36.6875","67.1875","-34.0625"
"1571675762283","480","0.4951172","1.4199219","0.5800781","-3.5625","-80.75","-22.15625"
"1571675762372","481","-0.2626953","0.91015625","-0.02734375","62.0625","50.78125","169.71875"
"1571675762462","482","-0.6113281","1.7382812","0.6904297","133.03125","179.6875","138.28125"
"1571675762582","483","-0.21875","0.53808594","0.30664062","96.46875","-223.34375","80.1875"
"1571675762672","484","-0.7138672","-0.13183594","0.24414062","-84.375","-31.3125","-36.875"
"1571675762763","485","0.13769531","1.3994141","-0.23730469","4.3125","-129.03125","14.375"
"1571675762883","486","-1.9697266","-0.47558594","-2.0","-48.28125","332.5625","26.09375"
"1571675762973","487","-0.17382812","1.0878906","0.76171875","-170.0625","-78.5","-112.0"
"1571675763063","488","0.14453125","1.0644531","0.17675781","-151.375","241.625","-56.0"
"1571675763183","489","-0.11425781","1.0224609","0.026367188","-52.8125","17.125","-55.625"
"1571675763272","490","0.6152344","1.0664062","0.4658203","19.09375","-55.6875","-25.90625"
"1571675763362","491","0.05078125","1.0771484","-0.05078125","90.3125","27.09375","145.4375"
"1571675763483","492","-0.6425781","2.0","0.6376953","187.4375","149.21875","154.84375"
"1571675763572","493","-0.328125","0.515625","0.26367188","50.59375","-118.78125","94.46875"
"1571675763662","494","-1.0097656","-0.10449219","0.33398438","-3.25","-74.28125","-3.6875"
"1571675763783","495","0.36914062","2.0","-0.3095703","-76.8125","-55.1875","52.28125"
"1571675763872","496","0.8876953","2.0","0.3486328","-76.96875","71.53125","29.46875"
"1571675763963","497","-0.4638672","1.5556641","0.85839844","-148.4375","24.65625","-140.21875"
"1571675764083","498","0.27929688","1.0253906","0.12207031","-160.71875","208.125","-90.40625"
"1571675764173","499","-0.046875","0.7841797","-0.0068359375","-43.71875","49.3125","-60.0625"
"1571675764263","500","0.3017578","1.1806641","0.49609375","39.90625","33.96875","-44.8125"
"1571675764383","501","0.08203125","1.3125","0.0029296875","103.0625","32.09375","128.90625"
"1571675764473","502","-0.50878906","2.0","0.66796875","174.59375","4.8125","177.0"
"1571675764563","503","-0.23828125","0.6074219","0.2734375","37.15625","-105.59375","122.1875"
"1571675764683","504","-0.93359375","-0.10644531","0.30664062","8.96875","-99.625","16.34375"
"1571675764772","505","2.0","2.0","-0.8300781","-74.46875","225.5625","120.09375"
"1571675764862","506","0.14746094","2.0","0.71484375","-18.3125","-12.15625","-12.34375"
"1571675764982","507","-0.4873047","1.453125","0.7294922","-57.8125","-14.3125","-139.40625"
"1571675765072","508","0.14746094","1.0146484","0.35839844","-197.15625","65.59375","-105.1875"
"1571675765163","509","-0.06542969","0.7910156","-0.30859375","21.15625","137.9375","-54.46875"
"1571675765282","510","0.08984375","1.2265625","0.5058594","6.8125","118.875","-31.21875"
"1571675765372","511","0.028320312","1.3505859","-0.31933594","111.3125","38.625","95.5625"
"1571675765462","512","-0.5175781","2.0","0.087890625","133.40625","-53.65625","235.6875"
"1571675765583","513","0.028320312","0.6503906","0.083984375","32.40625","-82.09375","130.34375"
"1571675765673","514","-0.7529297","-0.0068359375","0.2890625","38.8125","-126.0625","23.53125"
"1571675765763","515","2.0","2.0","-1.7431641","74.6875","-72.28125","39.0625"
"1571675765883","516","-2.0","1.9052734","-0.35351562","-157.71875","-40.0625","34.28125"
"1571675765972","517","-0.3642578","1.1044922","0.57421875","-110.5625","-45.96875","-122.9375"
"1571675766062","518","0.13085938","0.83691406","0.265625","-173.53125","102.03125","-99.6875"
"1571675766182","519","0.033203125","0.671875","-0.080078125","-38.90625","54.6875","-78.5625"
"1571675766272","520","-0.001953125","1.2158203","0.39746094","0.40625","102.84375","-37.4375"
"1571675766363","521","0.046875","1.3554688","-0.32128906","86.09375","71.28125","89.65625"
"1571675766483","522","-0.39453125","1.9970703","0.052734375","129.875","-52.75","239.1875"
"1571675766573","523","-0.10546875","0.7294922","0.06738281","28.84375","-63.125","130.71875"
"1571675766662","524","-0.71875","-0.001953125","0.31347656","63.15625","-148.03125","19.21875"
"1571675766782","525","2.0","2.0","-2.0","61.03125","-238.0","-55.125"
"1571675766872","526","-1.8740234","1.6191406","-0.8027344","-122.6875","42.21875","-29.375"
"1571675766962","527","-0.51464844","0.9707031","0.5830078","-70.5625","32.6875","-97.0625"
"1571675767082","528","0.16308594","1.0537109","0.1796875","-231.8125","210.5","-108.28125"
"1571675767172","529","-0.005859375","0.5888672","-0.03515625","-55.125","2.71875","-85.59375"
"1571675767262","530","-0.13183594","1.2138672","0.17089844","-16.8125","57.34375","-50.5625"
"1571675767352","531","0.01953125","1.3242188","-0.24902344","86.03125","30.0625","61.625"
"1571675767473","532","-0.35546875","1.5371094","-0.016601562","91.34375","-75.34375","224.96875"
"1571675767564","533","0.13671875","0.67285156","-0.78222656","-8.0625","-50.5","135.71875"
"1571675767653","534","-0.6015625","0.13867188","0.24902344","84.46875","-185.1875","45.34375"
"1571675767773","535","0.13476562","0.9082031","-1.4345703","-69.71875","-108.46875","-76.3125"
"1571675767861","536","-0.33398438","-0.06738281","0.4736328","75.25","-70.15625","-21.1875"
"1571675767953","537","-0.54785156","0.29296875","0.34960938","5.34375","50.40625","-86.375"
"1571675768073","538","0.09667969","0.9501953","0.5292969","-204.84375","-40.25","-117.9375"
"1571675768163","539","0.025390625","0.6328125","-0.23828125","10.1875","227.71875","-57.3125"
"1571675768253","540","-0.30273438","1.0419922","0.19726562","-23.625","113.21875","-38.40625"
"1571675768372","541","0.42773438","1.3496094","0.10644531","29.78125","11.03125","27.4375"
"1571675768462","542","-0.3251953","1.2744141","-0.06640625","86.59375","-51.90625","213.0625"
"1571675768553","543","-0.37597656","0.9433594","0.25976562","-8.8125","-36.5625","131.875"
"1571675768672","544","-0.36816406","0.19335938","0.34179688","73.65625","-178.1875","42.28125"
"1571675768763","545","-0.47753906","0.35253906","-0.19335938","-101.6875","-24.4375","-78.25"
"1571675768853","546","-0.055664062","-0.23046875","0.5078125","78.78125","-80.65625","-0.9375"
"1571675768973","547","-0.4736328","0.06933594","0.14257812","84.75","-16.3125","-71.65625"
"1571675769063","548","-0.09863281","0.984375","0.6484375","-192.28125","44.25","-114.21875"
"1571675769151","549","0.17480469","0.7441406","-0.11425781","-66.0625","267.9375","-38.03125"
"1571675769272","550","-0.17871094","0.9970703","0.12402344","-48.40625","26.28125","-54.6875"
"1571675769362","551","0.2998047","1.4570312","-0.25683594","5.84375","-52.75","-7.34375"
"1571675769453","552","-0.044921875","1.0117188","0.045898438","63.46875","-11.25","176.0625"
"1571675769602","553","-0.8730469","1.7294922","0.6894531","151.53125","189.0","148.25"
"1571675769661","554","-0.37402344","0.421875","0.24316406","77.3125","-157.84375","73.21875"
"1571675769753","555","-0.6923828","-0.12695312","0.26464844","-56.34375","-41.09375","-38.59375"
"1571675769872","556","0.31054688","1.7011719","-0.14941406","-7.34375","-78.3125","49.46875"
"1571675769963","557","-0.4091797","1.4003906","-0.6484375","-81.3125","215.4375","75.65625"
"1571675770053","558","-0.26660156","1.4716797","1.0966797","-184.71875","-30.78125","-130.625"
"1571675770173","559","0.4453125","1.0722656","-0.099609375","-124.09375","249.9375","-65.375"
"1571675770263","560","0.009765625","0.8779297","-0.033203125","-37.1875","-27.78125","-65.625"
"1571675770353","561","-0.076171875","1.0576172","0.4404297","19.6875","107.65625","-12.96875"
"1571675770473","562","0.01171875","1.2167969","-0.020507812","97.59375","76.34375","79.34375"
"1571675770563","563","-0.3515625","2.0","0.047851562","114.65625","-39.75","220.25"
"1571675770653","564","-0.21875","0.60546875","-0.05078125","22.375","9.375","122.0"
"1571675770772","565","-0.62890625","0.18164062","0.3720703","46.6875","-127.40625","31.0625"
"1571675770862","566","2.0","2.0","-2.0","66.03125","-273.4375","-74.1875"
"1571675770953","567","-1.2353516","1.2753906","-0.06640625","-57.4375","-0.75","-44.3125"
"1571675771073","568","-0.46972656","0.8730469","0.5859375","-36.34375","-47.5","-108.40625"
"1571675771163","569","0.080078125","0.9765625","0.36328125","-184.65625","31.28125","-103.53125"
"1571675771253","570","0.025390625","0.6171875","-0.005859375","-64.21875","115.53125","-48.21875"
"1571675771372","571","-0.17871094","1.1621094","0.08203125","-4.21875","10.3125","-49.21875"
"1571675771462","572","0.18066406","1.1865234","-0.2841797","19.6875","-23.6875","15.3125"
"1571675771554","573","-0.23925781","1.265625","0.034179688","83.0","-71.25","206.09375"
"1571675771673","574","-0.48242188","0.98535156","0.36035156","8.09375","-9.0","131.6875"
"1571675771762","575","-0.43554688","0.2548828","0.33398438","87.25","-166.59375","63.21875"
"1571675771881","576","-0.30371094","0.24609375","0.06640625","-88.46875","-7.875","-76.5625"
"1571675771971","577","-0.09082031","0.37109375","0.0625","52.53125","-114.34375","10.1875"
"1571675772062","578","-1.1201172","-0.2685547","-0.65234375","-21.875","223.96875","-15.59375"
"1571675772152","579","-0.041015625","0.9746094","0.69140625","-180.5625","-27.84375","-83.5625"
"1571675772362","580","0.11328125","0.9716797","0.03515625","-67.34375","175.9375","-66.71875"
"1571675772363","581","-0.024414062","0.89746094","0.07910156","-41.15625","59.6875","-51.15625"
"1571675772453","582","0.21582031","1.0078125","0.65527344","60.71875","55.71875","-39.125"
"1571675772573","583","0.140625","1.1474609","-0.0078125","101.0625","57.59375","98.875"
"1571675772663","584","-0.46289062","2.0","0.28808594","136.28125","-57.8125","203.40625"
"1571675772753","585","-0.115234375","0.640625","0.111328125","26.15625","-73.1875","133.21875"
"1571675772873","586","-0.8798828","-0.015625","0.30371094","36.90625","-114.59375","27.375"
"1571675772963","587","2.0","2.0","-2.0","-0.0625","-102.25","-81.6875"
"1571675773053","588","-1.0410156","0.95410156","0.02734375","-42.625","-40.125","-27.34375"
"1571675773172","589","-0.4765625","0.89941406","0.6923828","-29.0625","0.09375","-112.9375"
"1571675773262","590","0.061523438","0.9404297","0.3779297","-190.5","63.15625","-95.65625"
"1571675773351","591","0.038085938","0.828125","0.091796875","-68.125","134.5","-22.40625"
"1571675773442","592","-0.20019531","0.9482422","-0.013671875","-29.25","120.09375","-38.96875"
"1571675773563","593","0.6464844","1.3935547","0.94433594","10.40625","-159.8125","-42.75"
"1571675773653","594","-0.20996094","1.0585938","-0.18652344","122.71875","25.0","137.5"
"1571675773744","595","-0.6435547","2.0","0.3125","126.5","190.46875","178.5"
"1571675773863","596","-0.24511719","0.8388672","0.17578125","46.4375","-113.25","113.21875"
"1571675773953","597","-0.8779297","0.16503906","0.23535156","10.3125","-68.3125","6.15625"
"1571675774043","598","0.6982422","1.4951172","-0.98828125","-26.25","-88.34375","-122.6875"
"1571675774163","599","-0.5058594","0.038085938","0.08203125","93.375","-62.875","-24.84375"
"1571675774252","600","-0.25097656","-0.3779297","-0.037109375","-56.46875","-26.875","-68.875"
"1571675774342","601","-0.109375","0.72558594","0.40527344","-35.0","-36.09375","-32.0625"
"1571675774462","602","-0.25","0.89746094","0.009765625","-97.84375","130.90625","-12.65625"
"1571675774553","603","0.013671875","1.0263672","0.030273438","-22.15625","6.09375","-58.65625"
"1571675774673","604","-0.0087890625","0.8496094","0.3955078","-22.0625","10.84375","-33.53125"
"1571675774763","605","-0.28125","0.9433594","0.21386719","-13.3125","26.28125","6.8125"
"1571675774853","606","-0.20800781","0.90527344","0.18261719","7.5625","-14.53125","-14.3125"
"1571675774943","607","-0.34570312","0.9609375","0.29003906","-3.90625","14.4375","-2.40625"
"1571675775064","608","-0.19726562","0.9013672","0.10546875","-4.90625","27.875","-1.78125"
"1571675775153","609","-0.24902344","0.9316406","0.27539062","5.0","-5.375","-5.5"
"1571675775243","610","-0.23144531","0.921875","0.13476562","-0.1875","11.875","-0.6875"
"1571675775363","611","-0.27246094","0.90234375","0.23730469","-1.25","-0.3125","-2.59375"
"1571675775452","612","-0.2705078","0.9550781","0.15820312","-0.75","3.65625","2.3125"
"1571675775541","613","-0.24804688","0.8876953","0.22363281","2.5625","0.21875","2.125"
"1571675775662","614","-0.25097656","0.9580078","0.20214844","-4.28125","4.0625","0.46875"
"1571675775752","615","-0.17871094","0.9326172","0.18261719","1.5625","-2.59375","1.09375"
"1571675775845","616","-0.22070312","0.9296875","0.20996094","-1.90625","0.28125","0.71875"
"1571675775964","617","-0.22265625","0.92578125","0.20800781","1.5625","0.34375","0.78125"
"1571675776053","618","-0.23828125","0.9375","0.19335938","1.3125","3.71875","2.5625"
"1571675776143","619","-0.23632812","0.9404297","0.20898438","0.65625","2.125","1.3125"
"1571675776263","620","-0.21875","0.9404297","0.19238281","0.28125","2.65625","2.1875"
"1571675776353","621","-0.20898438","0.93652344","0.18652344","0.21875","3.59375","1.5625"
"1571675776443","622","-0.21875","0.9316406","0.20019531","0.21875","3.65625","2.5"
"1571675776563","623","-0.21582031","0.9423828","0.19628906","0.03125","2.1875","1.875"
"1571675776652","624","-0.20703125","0.9433594","0.1953125","-0.375","1.4375","0.96875"
"1571675776742","625","-0.21972656","0.9326172","0.19921875","-0.0625","1.375","0.90625"
"1571675776863","626","-0.2109375","0.93652344","0.19726562","-0.5","1.3125","0.71875"
