"# PDIoT walking data"
"# Start time: 20190922T153213"
"# Group: B"
"# Subject: test2"
"# Activity type: Walking (level ground)"
"# Sensor position: Lower Leg"
"# Side of body: Left"
"# Sensor mounting: Body"
"# Number of steps: 100"
"# Notes: "
""
"timestamp","seq","accel_x","accel_y","accel_z","gyro_x","gyro_y","gyro_z"
"1569162734123","0","-1.2783203","0.3359375","-0.31054688","-53.25","47.46875","123.40625"
"1569162734212","1","-0.5214844","0.5214844","-0.57421875","-54.34375","54.1875","97.09375"
"1569162734332","2","-0.4248047","0.2421875","-0.17382812","14.4375","-34.75","-84.0"
"1569162734422","3","-0.8261719","0.390625","-0.2890625","86.15625","-93.59375","-190.875"
"1569162734512","4","-1.2666016","0.45214844","-0.4873047","20.90625","-82.84375","-263.8125"
"1569162734602","5","-1.2294922","0.78222656","-0.4140625","56.375","-62.5625","-149.84375"
"1569162734722","6","-1.4667969","0.44921875","0.083984375","102.53125","-11.71875","126.28125"
"1569162734812","7","-0.8378906","-0.33691406","-0.58496094","-9.96875","47.03125","0.0"
"1569162734902","8","-0.9902344","0.01953125","-0.3623047","12.25","51.6875","41.375"
"1569162735023","9","-0.9609375","-0.0107421875","-0.29589844","-29.125","34.71875","32.9375"
"1569162735112","10","-0.9560547","0.080078125","-0.33691406","-22.15625","31.46875","72.90625"
"1569162735203","11","-0.890625","0.2578125","-0.4501953","-25.34375","28.90625","58.40625"
"1569162735323","12","-1.1328125","0.15917969","-0.2998047","-26.5625","26.46875","65.90625"
"1569162735413","13","-1.3837891","0.22949219","-0.5175781","-58.96875","25.9375","109.1875"
"1569162735532","14","-1.3681641","0.08984375","-0.62109375","-61.34375","95.8125","151.53125"
"1569162735623","15","-0.5361328","-0.42285156","-0.10546875","-48.125","5.59375","-51.59375"
"1569162735713","16","-0.5205078","0.171875","-0.23925781","75.4375","-82.34375","-162.90625"
"1569162735803","17","-1.0644531","0.42285156","-0.41601562","49.125","-120.625","-282.0"
"1569162735923","18","-1.4443359","0.8222656","-0.6542969","61.9375","-75.40625","-273.40625"
"1569162736013","19","-1.4902344","0.26757812","-0.4453125","65.59375","32.15625","84.34375"
"1569162736102","20","-0.8847656","0.12207031","-0.42285156","16.28125","57.71875","3.84375"
"1569162736223","21","-1.0898438","-0.13671875","-0.35742188","-13.375","46.625","10.96875"
"1569162736312","22","-0.95996094","-0.23144531","-0.26953125","-32.0625","36.4375","62.4375"
"1569162736402","23","-0.92578125","0.15234375","-0.33398438","-30.78125","34.46875","78.96875"
"1569162736522","24","-0.92089844","0.21972656","-0.41308594","-35.65625","25.0625","46.625"
"1569162736612","25","-1.1835938","0.22265625","-0.5126953","-1.0","31.25","95.8125"
"1569162736702","26","-1.4453125","0.20117188","-0.37109375","-55.125","29.28125","112.46875"
"1569162736822","27","-1.2753906","0.14550781","-0.49609375","-82.71875","96.84375","145.125"
"1569162736912","28","-0.3984375","-0.36035156","-0.08496094","-15.59375","-6.125","-15.40625"
"1569162737003","29","-0.546875","0.22070312","-0.27539062","90.0","-101.28125","-180.9375"
"1569162737122","30","-1.2714844","0.58691406","-0.44628906","49.0625","-114.15625","-282.90625"
"1569162737213","31","-1.2910156","0.8125","-0.76660156","78.78125","-81.0","-234.34375"
"1569162737303","32","-1.4423828","0.16015625","-0.2734375","24.21875","29.78125","73.03125"
"1569162737422","33","-0.5566406","0.58496094","-0.47265625","-6.25","72.125","43.5"
"1569162737513","34","-0.9824219","0.07519531","-0.4033203","5.125","55.46875","44.84375"
"1569162737603","35","-0.9902344","0.01953125","-0.2998047","-40.46875","33.5625","50.8125"
"1569162737723","36","-0.94140625","0.059570312","-0.3779297","-41.03125","28.90625","56.0625"
"1569162737812","37","-0.9375","0.16699219","-0.44140625","-32.25","25.3125","55.78125"
"1569162737933","38","-1.0966797","0.1953125","-0.45703125","-8.375","24.8125","111.625"
"1569162738023","39","-1.4980469","0.06347656","-0.2705078","-57.5625","31.59375","116.5625"
"1569162738142","40","-1.2275391","0.22949219","-0.48242188","-89.625","40.875","175.65625"
"1569162738202","41","-0.390625","0.125","-0.13671875","19.75","-29.5","-24.125"
"1569162738323","42","-0.5830078","0.25976562","-0.2626953","83.78125","-103.15625","-198.8125"
"1569162738413","43","-1.4394531","0.8261719","-0.64941406","11.21875","-90.34375","-298.21875"
"1569162738533","44","-1.0703125","0.9970703","-0.6328125","54.0625","-71.96875","-219.6875"
"1569162738623","45","-1.2685547","-0.7919922","0.34179688","30.0625","-70.8125","-180.625"
"1569162738713","46","-0.9433594","-0.47851562","-0.5957031","0.28125","42.09375","10.71875"
"1569162738803","47","-1.0175781","0.0029296875","-0.3935547","0.0","40.5","25.75"
"1569162738923","48","-0.9111328","-0.17285156","-0.34765625","-17.34375","38.375","62.84375"
"1569162739042","49","-0.9404297","-0.005859375","-0.33496094","-28.75","31.0625","67.625"
"1569162739102","50","-0.8964844","0.1640625","-0.3935547","-16.6875","26.96875","75.0"
"1569162739252","51","-1.1503906","0.2607422","-0.4580078","-27.40625","27.09375","86.84375"
"1569162739343","52","-1.3183594","0.2421875","-0.36328125","-47.5625","21.59375","114.5"
"1569162739403","53","-1.5019531","-0.028320312","-0.51953125","-64.96875","88.4375","151.0"
"1569162739523","54","-0.5234375","-0.5234375","-0.047851562","-43.84375","-3.75","-55.375"
"1569162739612","55","-0.56640625","0.14941406","-0.27539062","93.1875","-91.75","-173.65625"
"1569162739703","56","-1.2958984","0.47851562","-0.60253906","50.15625","-100.1875","-293.53125"
"1569162739823","57","-1.3583984","0.8466797","-0.61035156","42.78125","-55.875","-266.1875"
"1569162739913","58","-1.3056641","0.6035156","-0.41796875","80.125","44.96875","44.0625"
"1569162740003","59","-0.76171875","0.29003906","-0.515625","-1.0625","67.0","45.46875"
"1569162740093","60","-0.95703125","-0.033203125","-0.4140625","10.125","48.03125","46.875"
"1569162740212","61","-0.953125","-0.03125","-0.3515625","-21.9375","31.90625","63.21875"
"1569162740362","62","-0.93359375","-0.07421875","-0.35058594","-30.65625","30.25","67.4375"
"1569162740393","63","-0.9355469","0.099609375","-0.41601562","-28.40625","28.71875","61.375"
"1569162740513","64","-1.1025391","0.171875","-0.3466797","-27.0625","25.4375","90.8125"
"1569162740602","65","-1.3339844","0.21875","-0.41601562","-50.1875","22.625","121.6875"
"1569162740692","66","-1.4921875","-0.13867188","-0.58496094","-29.875","85.4375","151.71875"
"1569162740813","67","-0.57128906","-0.546875","-0.021484375","-70.5625","-18.4375","-77.59375"
"1569162740902","68","-0.5488281","0.125","-0.2529297","48.15625","-95.71875","-202.78125"
"1569162740993","69","-1.3603516","0.75390625","-0.5839844","64.5625","-95.0","-277.3125"
"1569162741113","70","-1.2333984","0.97753906","-0.7626953","44.84375","-70.28125","-243.375"
"1569162741202","71","-1.5810547","0.11328125","-0.005859375","47.34375","6.75","55.46875"
"1569162741322","72","-0.75878906","0.39257812","-0.57128906","2.84375","74.03125","46.5"
"1569162741413","73","-0.9863281","-0.056640625","-0.3359375","17.4375","38.375","43.5"
"1569162741532","74","-0.95410156","-0.05078125","-0.29589844","-30.78125","33.84375","45.46875"
"1569162741592","75","-0.9501953","-0.00390625","-0.35546875","-24.25","33.0","71.9375"
"1569162741741","76","-0.91015625","0.22558594","-0.41601562","-23.625","29.15625","67.1875"
"1569162741802","77","-1.1318359","0.17285156","-0.42578125","-21.25","27.9375","92.28125"
"1569162741892","78","-1.4082031","0.15527344","-0.21191406","-74.84375","24.03125","110.21875"
"1569162742012","79","-1.4394531","-0.005859375","-0.6044922","-79.78125","92.4375","162.34375"
"1569162742102","80","-0.37695312","-0.5830078","-0.072265625","-23.34375","-20.46875","-61.40625"
"1569162742193","81","-0.55371094","0.15039062","-0.27929688","71.75","-124.90625","-207.59375"
"1569162742313","82","-1.4990234","0.6972656","-0.7607422","46.5625","-89.375","-294.21875"
"1569162742403","83","-1.1357422","0.8720703","-0.7626953","19.28125","-52.6875","-238.59375"
"1569162742523","84","-1.3691406","-0.9589844","0.7939453","62.90625","-73.625","-158.21875"
"1569162742612","85","-0.9472656","-0.60253906","-0.80371094","-2.8125","36.53125","-1.59375"
"1569162742702","86","-1.0419922","0.08496094","-0.46875","-3.375","42.09375","33.90625"
"1569162742822","87","-0.953125","-0.080078125","-0.36328125","-29.625","36.71875","62.0"
"1569162742913","88","-0.92285156","0.11328125","-0.41308594","-21.3125","36.78125","81.53125"
"1569162743032","89","-0.95214844","0.119140625","-0.4296875","-36.09375","28.25","64.4375"
"1569162743092","90","-1.2275391","0.26660156","-0.6074219","-22.46875","29.9375","125.34375"
"1569162743243","91","-1.8447266","-0.029296875","-0.30273438","-131.59375","57.40625","124.4375"
"1569162743333","92","-0.625","0.6123047","-0.5136719","-52.6875","65.46875","142.6875"
"1569162743393","93","-0.37597656","0.095703125","-0.12109375","44.59375","-48.59375","-142.28125"
"1569162743543","94","-0.9189453","0.28027344","-0.15039062","58.9375","-110.71875","-283.40625"
"1569162743633","95","-1.5332031","0.6904297","-0.5097656","95.03125","-100.71875","-314.40625"
"1569162743692","96","-0.08300781","1.7822266","-0.83691406","14.3125","23.0625","105.46875"
"1569162743812","97","-1.6933594","1.0683594","-0.076171875","46.0","66.4375","234.0"
"1569162743933","98","-1.1884766","0.016601562","-0.5292969","12.0625","79.28125","101.5"
"1569162743992","99","-0.97265625","-0.16601562","-0.30273438","-62.34375","28.5","29.15625"
"1569162744113","100","-0.9472656","0.034179688","-0.34570312","-37.125","30.875","73.15625"
"1569162744202","101","-0.9042969","0.23242188","-0.4423828","-32.1875","29.34375","65.96875"
"1569162744292","102","-1.0927734","0.23242188","-0.43066406","-2.9375","27.21875","117.53125"
"1569162744413","103","-1.7949219","-0.13085938","-0.19042969","-87.25","36.65625","132.8125"
"1569162744503","104","-0.85546875","0.18945312","-0.4189453","-12.84375","29.65625","161.0625"
"1569162744593","105","-0.41308594","0.29492188","-0.20898438","24.875","-46.78125","-63.6875"
"1569162744713","106","-0.65722656","0.26464844","-0.33007812","88.96875","-136.5625","-231.59375"
"1569162744803","107","-1.6054688","0.64453125","-0.87402344","48.4375","-115.0625","-339.5625"
"1569162744893","108","-0.7060547","1.6416016","-1.0644531","-21.0","3.15625","-111.21875"
"1569162745012","109","-1.859375","0.328125","0.0078125","161.0","81.15625","227.65625"
"1569162745102","110","-1.0878906","-0.07910156","-0.41796875","13.34375","68.15625","98.8125"
"1569162745192","111","-0.93652344","0.076171875","-0.37695312","-35.90625","26.71875","28.0"
"1569162745313","112","-0.9345703","-0.024414062","-0.35253906","-43.71875","25.8125","61.25"
"1569162745403","113","-0.9033203","0.18359375","-0.37890625","-35.65625","25.6875","67.4375"
"1569162745493","114","-1.1396484","0.12890625","-0.3486328","-24.0625","25.375","85.5"
"1569162745613","115","-1.4208984","0.20507812","-0.53808594","-57.21875","26.65625","111.8125"
"1569162745703","116","-1.4873047","0.056640625","-0.54589844","-86.5","90.4375","177.59375"
"1569162745793","117","-0.51171875","-0.4736328","-0.080078125","-34.9375","-1.0625","-62.5625"
"1569162745913","118","-0.5390625","0.19628906","-0.21679688","68.09375","-96.875","-176.90625"
"1569162746003","119","-1.1845703","0.3984375","-0.41601562","42.15625","-110.1875","-297.875"
"1569162746093","120","-1.3525391","0.86035156","-0.5908203","49.65625","-83.6875","-266.125"
"1569162746243","121","-0.53027344","1.21875","-0.9423828","25.75","61.03125","90.8125"
"1569162746303","122","-1.0322266","0.9189453","-0.29882812","34.96875","73.46875","247.96875"
"1569162746392","123","-1.0683594","0.19433594","-0.5966797","-4.15625","81.84375","85.9375"
"1569162746513","124","-0.99902344","-0.12695312","-0.2919922","-34.3125","37.875","54.6875"
"1569162746602","125","-0.9345703","0.10839844","-0.3544922","-33.53125","30.25","62.0625"
"1569162746692","126","-0.9111328","0.21582031","-0.4326172","-30.15625","28.90625","56.5625"
"1569162746812","127","-1.1484375","0.125","-0.4111328","-25.71875","27.03125","98.0625"
"1569162746902","128","-1.4296875","0.005859375","-0.34179688","-69.53125","21.34375","120.90625"
"1569162746992","129","-1.4384766","0.01171875","-0.49316406","-77.78125","51.5625","177.71875"
"1569162747082","130","-0.32910156","-0.13964844","-0.076171875","-20.21875","-17.59375","-28.53125"
"1569162747232","131","-0.5917969","0.2734375","-0.3046875","73.59375","-112.5625","-210.84375"
"1569162747292","132","-1.3701172","0.6689453","-0.67285156","67.4375","-111.28125","-277.65625"
"1569162747382","133","-1.0292969","1.1191406","-0.73046875","15.3125","-56.90625","-216.03125"
"1569162747502","134","-1.4638672","-1.2382812","0.7871094","20.75","-83.875","-259.0"
"1569162747592","135","-1.0068359","-0.46191406","-0.62597656","-5.03125","41.0","-22.59375"
"1569162747682","136","-0.9394531","-0.140625","-0.37304688","-13.25","36.0625","33.8125"
"1569162747803","137","-0.953125","-0.08886719","-0.33203125","-48.71875","33.375","60.71875"
"1569162747892","138","-0.9140625","0.083984375","-0.390625","-26.625","33.5","82.1875"
"1569162747982","139","-1.046875","0.22167969","-0.38671875","-34.4375","29.53125","57.53125"
"1569162748102","140","-1.1972656","0.2529297","-0.6328125","-31.03125","32.28125","125.46875"
"1569162748193","141","-1.828125","-0.028320312","-0.375","-90.21875","88.3125","154.59375"
"1569162748283","142","-0.6748047","0.3125","-0.2783203","-29.3125","2.4375","28.4375"
"1569162748403","143","-0.3779297","0.08496094","-0.17480469","53.09375","-84.0","-154.75"
"1569162748493","144","-0.9277344","0.27539062","-0.24316406","46.75","-125.125","-291.28125"
"1569162748582","145","-1.4394531","0.85839844","-0.6386719","61.03125","-86.3125","-313.4375"
"1569162748702","146","-0.15332031","1.6679688","-0.8466797","20.5","33.5625","124.3125"
"1569162748792","147","-1.2695312","1.2558594","-0.15234375","65.78125","73.84375","250.84375"
"1569162748882","148","-1.1376953","0.32617188","-0.31347656","-13.6875","53.6875","77.6875"
"1569162749002","149","-0.9423828","-0.14941406","-0.3251953","-55.75","33.0","25.5625"
"1569162749092","150","-0.9423828","-0.0859375","-0.3544922","-39.0625","38.1875","69.8125"
"1569162749182","151","-0.9091797","0.26757812","-0.453125","-31.4375","32.5625","63.40625"
"1569162749303","152","-1.1669922","0.19335938","-0.3544922","-30.28125","32.75","99.90625"
"1569162749393","153","-1.5800781","0.06933594","-0.21875","-94.375","29.34375","112.65625"
"1569162749483","154","-1.4042969","-0.19628906","-0.54785156","-53.90625","46.875","173.8125"
"1569162749603","155","-0.3955078","-0.25097656","-0.22558594","0.34375","-24.75","-27.25"
"1569162749692","156","-0.5185547","0.28027344","-0.3154297","49.96875","-109.34375","-222.78125"
"1569162749782","157","-1.3925781","0.67578125","-0.6777344","51.6875","-88.15625","-284.5"
"1569162749903","158","-1.1582031","1.2851562","-0.93847656","32.8125","-46.28125","-219.25"
"1569162749993","159","-1.5986328","-2.0","0.31835938","97.21875","78.40625","-216.03125"
"1569162750083","160","-1.2675781","-0.5361328","-1.0048828","10.46875","21.84375","-93.09375"
"1569162750202","161","-0.8828125","-0.072265625","-0.38476562","-64.46875","30.6875","62.71875"
"1569162750292","162","-0.9394531","0.015625","-0.42089844","-42.6875","32.6875","62.71875"
"1569162750382","163","-0.90527344","0.17480469","-0.41210938","-39.0625","26.53125","55.84375"
"1569162750503","164","-1.0644531","0.09472656","-0.4638672","-22.53125","29.21875","113.375"
"1569162750593","165","-1.5058594","0.07324219","-0.29101562","-82.09375","28.125","118.875"
"1569162750712","166","-1.4697266","-0.08691406","-0.5966797","-56.53125","72.75","183.15625"
"1569162750802","167","-0.3564453","-0.5078125","-0.111328125","-27.40625","-26.625","-61.0625"
"1569162750922","168","-0.5966797","0.26367188","-0.29785156","61.09375","-105.375","-225.53125"
"1569162751013","169","-1.5039062","0.84375","-0.6582031","53.375","-98.09375","-291.34375"
"1569162751103","170","-1.1142578","1.5302734","-0.96484375","57.1875","-53.90625","-143.15625"
"1569162751222","171","-1.5439453","-0.6660156","0.31445312","96.0","66.6875","125.09375"
"1569162751282","172","-1.046875","-0.5097656","-0.30273438","-31.5625","-3.0","35.4375"
"1569162751433","173","-1.0009766","-0.0068359375","-0.33398438","-13.5","34.59375","26.34375"
"1569162751492","174","-0.9453125","-0.022460938","-0.3466797","-39.5","40.6875","75.0"
"1569162751583","175","-0.90625","0.23535156","-0.4033203","-28.09375","37.21875","80.71875"
"1569162751791","176","-1.15625","0.119140625","-0.45703125","-39.125","38.1875","64.1875"
"1569162751792","177","-1.3652344","0.26367188","-0.5371094","-48.90625","28.625","123.15625"
"1569162751882","178","-1.6777344","-0.052734375","-0.5683594","-64.71875","92.40625","159.34375"
"1569162752002","179","-0.66015625","-0.36816406","-0.057617188","-43.46875","-11.5625","-53.71875"
"1569162752092","180","-0.5449219","0.1953125","-0.24609375","81.34375","-93.46875","-175.0625"
"1569162752182","181","-1.1796875","0.45214844","-0.5136719","44.96875","-115.90625","-284.8125"
"1569162752303","182","-1.3613281","0.77246094","-0.70410156","54.125","-77.28125","-265.53125"
"1569162752392","183","-1.2851562","0.7519531","-0.6503906","73.84375","68.28125","94.71875"
"1569162752483","184","-0.94140625","0.23632812","-0.40722656","21.40625","62.71875","51.375"
"1569162752573","185","-0.9355469","-0.16796875","-0.40722656","-15.34375","49.25","42.90625"
"1569162752692","186","-0.9453125","-0.18457031","-0.28027344","-39.03125","40.6875","47.40625"
"1569162752782","187","-0.96484375","0.08691406","-0.36816406","-26.6875","38.8125","71.21875"
"1569162752872","188","-0.9082031","0.16992188","-0.40234375","-41.875","29.34375","61.75"
"1569162752992","189","-1.1708984","0.21289062","-0.43164062","-19.96875","31.0","113.03125"
"1569162753083","190","-1.6142578","-0.10839844","-0.21484375","-74.28125","36.90625","116.25"
"1569162753173","191","-0.9863281","0.07910156","-0.46191406","-31.3125","32.625","149.40625"
"1569162753292","192","-0.4345703","0.2265625","-0.18847656","15.0625","-24.3125","-53.0"
"1569162753382","193","-0.74902344","0.3251953","-0.34277344","88.1875","-118.0","-219.875"
"1569162753472","194","-1.4111328","0.70410156","-0.70214844","40.375","-108.09375","-294.6875"
"1569162753622","195","-1.0117188","1.0810547","-0.7832031","5.96875","-53.125","-193.0"
"1569162753682","196","-1.484375","-0.75683594","0.24316406","31.65625","24.59375","-75.6875"
"1569162753802","197","-1.0087891","-0.26953125","-0.34277344","-26.625","28.84375","50.9375"
"1569162753892","198","-0.90625","-0.33203125","-0.3515625","-38.71875","20.6875","29.46875"
"1569162753983","199","-0.93652344","-0.018554688","-0.3564453","-37.5625","31.0625","60.90625"
"1569162754072","200","-0.9277344","0.13769531","-0.38671875","-16.5","31.0625","77.625"
"1569162754192","201","-1.0","0.033203125","-0.43164062","-33.84375","27.9375","69.6875"
"1569162754283","202","-1.2714844","0.2578125","-0.5546875","-26.25","30.25","120.96875"
"1569162754373","203","-1.6884766","0.16699219","-0.37695312","-92.4375","66.15625","146.65625"
"1569162754493","204","-0.6904297","0.16699219","-0.4111328","-83.4375","43.5625","33.5625"
"1569162754582","205","-0.4580078","-0.009765625","-0.14160156","45.75","-79.65625","-155.96875"
"1569162754672","206","-1.0214844","0.26367188","-0.4296875","74.75","-114.75","-262.09375"
"1569162754792","207","-1.4394531","0.6582031","-0.6640625","58.6875","-76.8125","-288.15625"
"1569162754883","208","-0.35351562","1.6728516","-0.5439453","10.0","27.28125","69.375"
"1569162754972","209","-1.1621094","1.0","-0.46484375","18.96875","90.0","167.34375"
"1569162755092","210","-0.96484375","0.13085938","-0.30859375","-19.84375","50.59375","47.15625"
"1569162755213","211","-0.98339844","-0.115234375","-0.29785156","-49.21875","28.375","23.0625"
"1569162755273","212","-0.9667969","-0.07324219","-0.2919922","-44.21875","29.28125","65.90625"
"1569162755393","213","-0.94433594","0.1796875","-0.38378906","-36.40625","29.21875","62.375"
"1569162755483","214","-1.1123047","0.11816406","-0.4892578","-11.78125","27.28125","94.65625"
"1569162755573","215","-1.4296875","0.18066406","-0.43945312","-57.875","29.90625","123.65625"
"1569162755692","216","-1.546875","0.24023438","-0.6953125","-60.25","88.84375","210.3125"
"1569162755782","217","-0.38964844","-0.35742188","-0.049804688","-37.3125","-15.34375","-27.46875"
"1569162755872","218","-0.59277344","0.23925781","-0.31445312","61.375","-106.28125","-199.71875"
"1569162755992","219","-1.2861328","0.7529297","-0.6533203","65.84375","-101.15625","-272.46875"
"1569162756083","220","-1.0507812","1.0234375","-0.67285156","25.0625","-60.3125","-219.625"
"1569162756173","221","-1.8251953","-0.63183594","0.59277344","63.40625","-63.375","-159.125"
"1569162756292","222","-0.8486328","0.03515625","-0.37304688","-40.375","46.1875","15.5"
"1569162756412","223","-0.9716797","-0.13085938","-0.41601562","-30.46875","36.4375","25.3125"
"1569162756503","224","-0.9511719","-0.036132812","-0.34570312","-19.71875","38.5625","65.34375"
"1569162756593","225","-0.93066406","0.103515625","-0.36816406","-31.15625","34.84375","70.34375"
"1569162756682","226","-0.9560547","0.22265625","-0.40820312","-28.59375","32.21875","68.40625"
"1569162756772","227","-1.1230469","0.23730469","-0.53808594","-12.21875","29.28125","116.5"
"1569162756892","228","-1.6220703","0.08886719","-0.45703125","-93.53125","61.25","136.15625"
"1569162756982","229","-0.71875","0.5292969","-0.4580078","-54.75","92.34375","162.09375"
"1569162757072","230","-0.4140625","0.24511719","-0.17089844","32.21875","-48.78125","-119.46875"
"1569162757222","231","-0.86035156","0.2607422","-0.18847656","55.78125","-106.09375","-266.125"
"1569162757282","232","-1.5253906","0.58496094","-0.5566406","88.0","-87.84375","-294.875"
"1569162757372","233","-0.7861328","1.3320312","-0.74902344","19.6875","-23.40625","-101.8125"
"1569162757492","234","-1.5087891","-1.1289062","0.3154297","59.1875","50.28125","-30.15625"
"1569162757582","235","-1.0664062","-0.53515625","-0.20019531","-15.625","-19.59375","30.25"
"1569162757672","236","-0.88964844","0.057617188","-0.18457031","-12.78125","29.71875","63.65625"
"1569162757793","237","-0.95214844","0.005859375","-0.3544922","-58.96875","32.21875","54.78125"
"1569162757883","238","-0.9394531","0.16308594","-0.3701172","-28.34375","34.40625","82.75"
"1569162757973","239","-0.9501953","0.16210938","-0.45117188","-28.8125","31.28125","70.0"
"1569162758093","240","-1.2089844","0.29003906","-0.6064453","-34.8125","28.84375","121.03125"
"1569162758182","241","-1.8642578","0.08886719","-0.33398438","-88.8125","76.59375","151.65625"
"1569162758272","242","-0.6142578","0.49902344","-0.25390625","-39.6875","12.125","73.78125"
"1569162758392","243","-0.3701172","0.15917969","-0.19726562","57.28125","-82.90625","-142.46875"
"1569162758482","244","-0.90527344","0.21777344","-0.32128906","76.40625","-135.875","-277.78125"
"1569162758603","245","-1.4716797","0.84765625","-0.7089844","69.8125","-81.6875","-272.53125"
"1569162758692","246","-0.49023438","1.3984375","-0.45898438","-43.21875","19.75","26.15625"
"1569162758782","247","-1.5966797","0.9970703","-0.22460938","32.625","67.3125","201.15625"
"1569162758872","248","-1.1435547","0.18359375","-0.2109375","-28.8125","20.5625","54.0625"
"1569162758962","249","-0.96777344","-0.08984375","-0.27539062","-47.4375","25.0625","23.59375"
"1569162759083","250","-0.9589844","0.036132812","-0.3466797","-40.78125","31.1875","69.25"
"1569162759202","251","-0.9160156","0.20800781","-0.4267578","-33.53125","29.21875","64.5"
"1569162759292","252","-1.0966797","0.083984375","-0.4482422","-19.125","24.28125","86.71875"
"1569162759382","253","-1.3662109","0.15429688","-0.45410156","-64.53125","23.25","111.0625"
"1569162759472","254","-1.4736328","0.14160156","-0.6875","-67.75","96.0625","181.5"
"1569162759562","255","-0.3564453","-0.33203125","-0.021484375","-55.3125","-9.125","-34.25"
"1569162759682","256","-0.5419922","0.07714844","-0.22753906","89.65625","-101.40625","-174.6875"
"1569162759772","257","-1.3476562","0.5732422","-0.6738281","75.78125","-133.375","-277.25"
"1569162759862","258","-1.1816406","0.72265625","-0.6269531","12.3125","-66.125","-250.0"
"1569162759982","259","-0.42285156","1.4853516","-0.6044922","-7.15625","33.25","50.34375"
"1569162760072","260","-1.2753906","1.0019531","-0.22070312","45.6875","74.6875","186.03125"
"1569162760162","261","-1.0292969","0.18554688","-0.051757812","-25.15625","40.8125","47.15625"
"1569162760283","262","-0.9550781","-0.028320312","-0.2890625","-34.0","36.0625","43.1875"
"1569162760373","263","-0.94140625","-0.11816406","-0.34179688","-38.53125","30.4375","52.78125"
"1569162760462","264","-0.9082031","0.20703125","-0.38671875","-21.6875","28.84375","59.96875"
"1569162760582","265","-0.9609375","0.08984375","-0.45410156","-28.875","30.4375","75.59375"
"1569162760672","266","-1.1005859","0.2578125","-0.55859375","-25.15625","25.375","107.28125"
"1569162760762","267","-1.6816406","0.115234375","-0.17675781","-83.375","60.28125","120.34375"
"1569162760883","268","-0.6298828","0.34179688","-0.5292969","-14.71875","27.15625","123.09375"
"1569162760972","269","-0.57421875","0.4169922","-0.29003906","21.96875","-73.125","-88.625"
"1569162761063","270","-0.8828125","0.28320312","-0.27246094","47.84375","-118.3125","-257.09375"
"1569162761182","271","-1.4658203","0.66308594","-0.54589844","76.71875","-108.59375","-296.78125"
"1569162761273","272","-0.8466797","1.7382812","-0.8251953","21.59375","-30.78125","-71.65625"
"1569162761363","273","-1.546875","-0.70410156","-0.036132812","60.46875","65.15625","158.125"
"1569162761483","274","-0.9638672","-0.4423828","-0.09667969","-3.1875","16.21875","44.1875"
"1569162761572","275","-1.0361328","0.15625","-0.27539062","-26.625","40.6875","53.21875"
"1569162761662","276","-0.98535156","-0.016601562","-0.3359375","-43.09375","35.875","61.03125"
"1569162761782","277","-0.9199219","0.20019531","-0.37890625","-28.03125","33.84375","69.125"
"1569162761872","278","-1.0351562","0.140625","-0.34277344","-33.15625","29.34375","76.78125"
"1569162761962","279","-1.1621094","0.3466797","-0.55566406","-36.46875","20.90625","128.46875"
"1569162762082","280","-1.7636719","-0.07128906","-0.44628906","-47.0","89.71875","161.25"
"1569162762172","281","-0.6611328","0.026367188","-0.12988281","-53.0","-0.3125","-24.375"
"1569162762262","282","-0.48535156","0.09375","-0.16015625","68.09375","-85.59375","-155.34375"
"1569162762383","283","-1.1552734","0.40722656","-0.55859375","63.09375","-120.875","-279.1875"
"1569162762472","284","-1.3925781","0.71191406","-0.55859375","-5.25","-77.34375","-291.59375"
"1569162762563","285","-0.46679688","1.5976562","-0.6074219","7.96875","15.78125","59.4375"
"1569162762683","286","-1.59375","0.42089844","0.10839844","90.1875","41.65625","204.34375"
"1569162762772","287","-0.99121094","-0.0068359375","-0.14550781","9.1875","41.5","67.625"
"1569162762862","288","-0.98828125","-0.13085938","-0.27246094","-31.09375","31.125","44.65625"
"1569162762982","289","-1.0087891","0.005859375","-0.3232422","-30.28125","34.71875","65.28125"
"1569162763072","290","-0.9189453","0.203125","-0.38183594","-24.6875","30.75","68.46875"
"1569162763162","291","-1.0039062","0.19042969","-0.39453125","-39.125","28.375","83.46875"
"1569162763312","292","-1.2333984","0.23925781","-0.5361328","-27.78125","14.5625","116.5625"
"1569162763402","293","-1.6386719","-0.051757812","-0.45898438","-65.1875","61.375","157.8125"
"1569162763492","294","-0.57714844","0.4638672","-0.46484375","-35.21875","31.71875","101.1875"
"1569162763612","295","-0.43359375","0.14648438","-0.15722656","26.65625","-74.125","-141.0625"
"1569162763672","296","-0.9511719","0.31054688","-0.24609375","71.28125","-110.0","-263.9375"
"1569162763763","297","-1.3671875","0.6425781","-0.54589844","70.71875","-90.28125","-281.625"
"1569162763883","298","-0.69433594","1.7011719","-0.82714844","0.28125","-3.125","-24.0625"
"1569162763973","299","-1.5800781","0.19140625","-0.040039062","127.5","68.21875","226.78125"
"1569162764063","300","-0.8876953","-0.10253906","-0.12792969","4.375","52.0","80.0"
"1569162764183","301","-1.0546875","0.08105469","-0.29296875","-32.84375","36.125","30.875"
"1569162764332","302","-0.953125","-0.15234375","-0.3515625","-43.34375","32.625","60.65625"
"1569162764362","303","-0.9277344","0.26953125","-0.36621094","-21.6875","34.09375","82.9375"
"1569162764542","304","-1.0771484","0.22167969","-0.49121094","-30.34375","30.3125","58.6875"
"1569162764572","305","-1.2255859","0.21972656","-0.6113281","-35.125","28.84375","122.125"
"1569162764662","306","-1.6591797","-0.033203125","-0.33398438","-69.96875","77.5","145.3125"
"1569162764783","307","-0.7421875","0.3017578","-0.072265625","-9.34375","-2.59375","41.96875"
"1569162764873","308","-0.421875","0.123046875","-0.23535156","51.125","-83.9375","-132.53125"
"1569162764963","309","-0.9316406","0.22753906","-0.34472656","36.90625","-120.125","-281.15625"
"1569162765053","310","-1.4882812","0.6347656","-0.625","18.28125","-72.15625","-301.53125"
"1569162765173","311","-0.7519531","1.6992188","-0.7158203","4.4375","8.78125","-38.21875"
"1569162765262","312","-1.5947266","0.43554688","-0.15039062","135.65625","83.125","314.1875"
"1569162765352","313","-0.85839844","-0.06738281","-0.38085938","-6.5","75.59375","80.3125"
"1569162765472","314","-0.9589844","-0.06738281","-0.33984375","-49.15625","29.90625","34.71875"
"1569162765562","315","-0.93847656","-0.046875","-0.3623047","-45.84375","30.0625","64.125"
"1569162765652","316","-0.9111328","0.28125","-0.39941406","-40.46875","29.28125","64.5"
"1569162765772","317","-1.1933594","0.03125","-0.3984375","-21.125","28.375","85.4375"
"1569162765862","318","-1.4541016","0.048828125","-0.4814453","-76.3125","31.53125","117.1875"
"1569162765952","319","-1.5654297","0.13574219","-0.6376953","-60.4375","90.125","196.875"
"1569162766072","320","-0.3203125","-0.23535156","-0.036132812","-56.46875","-13.5625","-52.1875"
"1569162766162","321","-0.51464844","0.16894531","-0.26367188","82.75","-102.96875","-199.90625"
"1569162766283","322","-1.3574219","0.8046875","-0.6855469","41.3125","-112.4375","-283.875"
"1569162766372","323","-1.2275391","1.0791016","-0.6269531","9.9375","-31.5","-226.53125"
"1569162766463","324","-1.3466797","0.35546875","-0.19726562","120.03125","38.0625","90.875"
"1569162766611","325","-0.890625","-0.22167969","-0.8623047","22.375","75.1875","-30.46875"
"1569162766672","326","-0.90625","-0.20117188","-0.47460938","-5.9375","41.25","29.59375"
"1569162766792","327","-0.96972656","0.107421875","-0.3046875","-37.375","31.71875","75.78125"
"1569162766852","328","-0.9238281","0.18359375","-0.359375","-35.15625","31.1875","82.6875"
"1569162766972","329","-0.9326172","0.20898438","-0.4375","-33.46875","28.84375","57.53125"
"1569162767062","330","-1.1884766","0.23925781","-0.5986328","-13.6875","28.4375","114.5"
"1569162767152","331","-1.8300781","0.09765625","-0.21289062","-96.875","60.84375","143.40625"
"1569162767272","332","-0.6796875","0.48535156","-0.6464844","-41.40625","86.71875","157.15625"
"1569162767363","333","-0.3095703","0.15039062","-0.1796875","26.40625","-73.375","-145.34375"
"1569162767453","334","-0.88183594","0.23339844","-0.24414062","51.0625","-106.59375","-289.625"
"1569162767573","335","-1.4091797","0.72558594","-0.5517578","79.34375","-86.0","-291.34375"
"1569162767663","336","-0.50097656","1.7275391","-0.79003906","10.59375","12.0","33.0625"
"1569162767752","337","-1.4794922","0.8828125","-0.0625","28.90625","58.28125","185.65625"
"1569162767872","338","-0.9794922","-0.005859375","-0.43359375","-2.9375","69.9375","69.125"
"1569162767962","339","-0.98339844","-0.12011719","-0.26367188","-32.0625","29.46875","35.375"
"1569162768052","340","-0.9472656","-0.07714844","-0.30078125","-35.15625","29.28125","63.15625"
"1569162768173","341","-0.91503906","0.24902344","-0.3857422","-27.59375","28.0","65.46875"
"1569162768262","342","-1.0410156","0.109375","-0.3828125","-29.0","23.0625","71.15625"
"1569162768352","343","-1.1464844","0.35253906","-0.5644531","-18.3125","27.5","118.625"
"1569162768472","344","-1.6972656","0.13964844","-0.38378906","-80.34375","64.3125","146.96875"
"1569162768563","345","-0.6123047","0.50097656","-0.5673828","-53.53125","90.9375","156.46875"
"1569162768653","346","-0.41503906","0.3486328","-0.22363281","58.09375","-84.3125","-122.8125"
"1569162768772","347","-0.84765625","0.2626953","-0.21679688","46.90625","-132.71875","-281.09375"
"1569162768892","348","-1.5117188","0.7421875","-0.5996094","79.625","-89.25","-293.96875"
"1569162768952","349","-0.4501953","1.7753906","-0.8466797","-23.40625","7.5","18.84375"
"1569162769072","350","-1.8417969","0.32714844","-0.051757812","110.28125","68.96875","243.03125"
"1569162769162","351","-0.8876953","0.001953125","-0.0625","-4.21875","57.34375","75.5"
"1569162769252","352","-1.0126953","-0.021484375","-0.27734375","-54.34375","31.78125","34.03125"
"1569162769372","353","-0.93847656","-0.078125","-0.33789062","-52.25","31.28125","65.59375"
"1569162769462","354","-0.9111328","0.26757812","-0.37402344","-28.8125","31.25","71.9375"
"1569162769552","355","-1.1699219","0.16894531","-0.3857422","-27.3125","25.0","75.59375"
"1569162769672","356","-1.4541016","0.21582031","-0.5888672","-45.65625","21.46875","130.125"
"1569162769763","357","-1.4453125","0.0146484375","-0.5654297","-103.15625","74.09375","173.25"
"1569162769853","358","-0.39648438","-0.48535156","-0.111328125","-25.65625","-11.71875","-50.125"
"1569162769973","359","-0.515625","0.12402344","-0.26464844","78.0","-104.8125","-188.4375"
"1569162770093","360","-1.390625","0.44335938","-0.59375","52.71875","-101.8125","-307.4375"
"1569162770152","361","-1.2353516","0.8876953","-0.671875","21.34375","-56.84375","-239.9375"
"1569162770272","362","-1.4814453","0.21386719","-0.32226562","117.21875","38.6875","48.3125"
"1569162770362","363","-0.87597656","-0.123046875","-0.67089844","22.5625","76.59375","1.3125"
"1569162770452","364","-0.9453125","-0.13183594","-0.34277344","-2.75","48.3125","35.1875"
"1569162770572","365","-0.9472656","-0.049804688","-0.33691406","-31.9375","38.625","54.90625"
"1569162770662","366","-0.95410156","0.09863281","-0.3798828","-21.1875","37.40625","78.59375"
"1569162770783","367","-0.94433594","0.08984375","-0.45996094","-35.71875","30.25","64.5625"
"1569162770872","368","-1.2792969","0.25585938","-0.453125","-34.375","34.96875","116.25"
"1569162770992","369","-1.8417969","0.015625","-0.38378906","-89.1875","60.46875","129.4375"
"1569162771083","370","-0.6503906","0.38183594","-0.5058594","-69.53125","95.375","124.0"
"1569162771291","371","-0.3671875","0.14453125","-0.171875","55.40625","-51.28125","-121.96875"
"1569162771292","372","-0.9033203","0.29882812","-0.24023438","60.46875","-103.40625","-260.09375"
"1569162771352","373","-1.5527344","0.57128906","-0.44335938","78.78125","-88.34375","-289.875"
"1569162771442","374","-0.56347656","1.8056641","-0.7783203","10.25","-6.96875","4.1875"
"1569162771562","375","-1.7509766","0.11328125","-0.09082031","80.78125","73.84375","190.65625"
"1569162771652","376","-0.9638672","-0.030273438","-0.44726562","1.21875","68.59375","72.90625"
"1569162771802","377","-0.97558594","-0.11816406","-0.3203125","-45.3125","28.71875","33.375"
"1569162771861","378","-0.94433594","-0.0234375","-0.30664062","-35.53125","32.21875","77.125"
"1569162771952","379","-0.8886719","0.28808594","-0.4033203","-38.15625","31.1875","64.75"
"1569162772042","380","-1.2099609","0.09863281","-0.38183594","-29.1875","25.5","83.46875"
"1569162772162","381","-1.515625","0.06640625","-0.35351562","-78.9375","23.96875","120.40625"
"1569162772283","382","-1.3603516","0.057617188","-0.5810547","-100.125","68.09375","182.46875"
"1569162772343","383","-0.3076172","-0.12109375","-0.07714844","9.09375","-13.9375","-27.46875"
"1569162772463","384","-0.60253906","0.24023438","-0.2783203","81.28125","-109.4375","-216.1875"
"1569162772552","385","-1.5263672","0.8544922","-0.625","47.34375","-99.5","-297.1875"
"1569162772642","386","-1.1064453","1.1328125","-0.8359375","66.8125","-56.53125","-192.875"
"1569162772762","387","-1.3007812","-1.5419922","0.77734375","15.78125","-49.625","-253.4375"
"1569162772852","388","-1.1455078","-0.5058594","-0.8300781","-15.34375","44.71875","-29.96875"
"1569162772942","389","-0.9716797","-0.043945312","-0.39160156","-4.71875","37.8125","43.6875"
"1569162773062","390","-0.9267578","-0.01953125","-0.34765625","-39.03125","36.90625","65.09375"
"1569162773152","391","-0.92285156","0.16796875","-0.40429688","-24.125","32.34375","80.125"
"1569162773242","392","-0.94433594","0.13476562","-0.43359375","-33.09375","26.09375","70.46875"
"1569162773363","393","-1.3505859","0.21679688","-0.59277344","-40.78125","29.34375","124.6875"
"1569162773453","394","-1.71875","-0.17675781","-0.3466797","-107.75","89.59375","146.46875"
"1569162773542","395","-0.6875","-0.087890625","-0.03125","-31.21875","3.46875","-32.90625"
"1569162773662","396","-0.41503906","0.087890625","-0.18945312","64.4375","-76.8125","-162.0"
"1569162773752","397","-1.1210938","0.19726562","-0.40234375","41.96875","-96.03125","-308.59375"
"1569162773842","398","-1.5009766","0.66015625","-0.5908203","75.84375","-66.65625","-293.28125"
"1569162773962","399","-0.82128906","0.9716797","-0.6689453","73.28125","60.46875","47.28125"
"1569162774052","400","-0.7158203","0.5136719","-0.68847656","-6.90625","103.5","60.21875"
"1569162774143","401","-1.0185547","-0.06738281","-0.31933594","0.90625","46.25","30.5625"
"1569162774262","402","-0.9580078","-0.1171875","-0.27929688","-42.625","29.21875","65.09375"
"1569162774352","403","-0.9160156","0.09375","-0.38671875","-37.84375","28.0625","67.25"
"1569162774442","404","-0.93359375","0.15429688","-0.40820312","-34.4375","27.5","58.40625"
"1569162774563","405","-1.1259766","0.19628906","-0.5078125","-4.78125","24.8125","119.125"
"1569162774653","406","-1.6855469","0.1015625","-0.080078125","-83.625","45.6875","137.625"
"1569162774772","407","-0.84375","0.30078125","-0.44140625","-37.25","28.125","154.03125"
"1569162774892","408","-0.484375","0.3388672","-0.13476562","7.96875","-53.59375","-83.75"
"1569162774952","409","-0.7421875","0.20410156","-0.14746094","80.1875","-114.75","-259.84375"
"1569162775042","410","-1.5390625","0.83691406","-0.7734375","35.75","-91.25","-324.90625"
"1569162775162","411","-0.67285156","1.5078125","-0.9423828","71.6875","-13.75","-69.71875"
"1569162775252","412","-1.5292969","0.23828125","-0.038085938","65.40625","64.5625","211.03125"
"1569162775342","413","-0.96484375","0.013671875","-0.17871094","-24.0625","43.6875","52.34375"
"1569162775492","414","-0.9951172","-0.048828125","-0.28027344","-22.28125","27.28125","19.9375"
"1569162775552","415","-0.9580078","0.056640625","-0.2890625","-50.4375","27.625","58.6875"
"1569162775732","416","-0.9501953","0.14746094","-0.35058594","-34.3125","30.625","64.0625"
"1569162775822","417","-0.96875","0.12109375","-0.453125","-28.6875","32.34375","74.8125"
"1569162775853","418","-1.1660156","0.34375","-0.5957031","-26.0625","26.59375","121.5"
"1569162775942","419","-1.9287109","0.0029296875","-0.3544922","-84.3125","71.03125","142.6875"
"1569162776063","420","-0.70214844","0.17578125","-0.3125","-71.71875","9.1875","14.15625"
"1569162776152","421","-0.43164062","0.09667969","-0.23730469","40.6875","-101.8125","-159.0625"
"1569162776243","422","-1.0605469","0.23925781","-0.53222656","77.4375","-120.6875","-276.9375"
"1569162776362","423","-1.4101562","0.78222656","-0.7363281","50.40625","-48.78125","-306.59375"
"1569162776452","424","-0.67089844","1.3486328","-0.5263672","61.75","45.46875","70.125"
"1569162776542","425","-0.6611328","0.58496094","-0.7324219","-13.125","100.09375","88.0625"
"1569162776751","426","-1.1103516","0.11816406","-0.3125","-2.875","48.625","37.34375"
"1569162776753","427","-0.9765625","-0.11621094","-0.27441406","-37.1875","30.5625","45.15625"
"1569162776842","428","-0.953125","0.057617188","-0.37304688","-37.375","29.28125","60.28125"
"1569162776962","429","-0.9765625","0.083984375","-0.40722656","-33.03125","29.09375","65.84375"
"1569162777052","430","-1.1757812","0.22363281","-0.5957031","-1.71875","29.21875","128.90625"
"1569162777142","431","-1.90625","-0.0234375","-0.2607422","-71.5","60.78125","149.8125"
"1569162777262","432","-0.72753906","0.3671875","-0.5097656","-73.875","91.96875","129.875"
"1569162777352","433","-0.37695312","0.18457031","-0.18164062","53.21875","-58.5625","-123.4375"
"1569162777442","434","-0.7919922","0.19238281","-0.21289062","52.40625","-118.84375","-278.53125"
"1569162777562","435","-1.4873047","0.7138672","-0.5966797","42.28125","-87.84375","-340.34375"
"1569162777652","436","-0.18457031","1.9003906","-0.6982422","23.78125","11.75","116.1875"
"1569162777742","437","-1.1972656","1.3554688","-0.2705078","29.09375","73.34375","263.34375"
"1569162777832","438","-0.9560547","0.47753906","-0.18945312","-33.40625","56.0625","82.375"
"1569162777952","439","-0.9560547","-0.20507812","-0.32714844","-55.125","17.1875","14.375"
"1569162778042","440","-0.95410156","0.13183594","-0.3408203","-23.5625","32.8125","83.90625"
"1569162778132","441","-0.90625","0.2421875","-0.4296875","-33.15625","29.28125","60.34375"
"1569162778252","442","-1.1455078","0.19335938","-0.4326172","-24.0","32.46875","103.5"
"1569162778342","443","-1.6826172","-0.017578125","-0.22851562","-86.625","41.0","111.5"
"1569162778432","444","-0.95214844","0.20507812","-0.4765625","-66.53125","59.0625","129.9375"
"1569162778552","445","-0.4345703","0.3154297","-0.11230469","15.0625","-36.875","-74.0625"
"1569162778642","446","-0.74316406","0.24902344","-0.25097656","83.125","-111.34375","-250.6875"
"1569162778762","447","-1.5478516","0.7451172","-0.65722656","65.21875","-110.78125","-323.0"
"1569162778852","448","-0.6845703","1.6816406","-0.9873047","19.28125","-2.625","-75.28125"
"1569162778942","449","-1.7880859","0.4453125","-0.07910156","97.40625","83.125","222.75"
"1569162779032","450","-1.0615234","-0.06933594","-0.38476562","0.65625","57.53125","74.4375"
"1569162779152","451","-0.9609375","-0.1796875","-0.29101562","-39.375","21.84375","25.0"
"1569162779242","452","-0.9433594","-0.036132812","-0.32226562","-44.375","26.59375","64.125"
"1569162779332","453","-0.9013672","0.15722656","-0.37695312","-29.0625","29.59375","75.84375"
"1569162779482","454","-1.0039062","0.09667969","-0.3955078","-31.15625","26.40625","71.8125"
"1569162779542","455","-1.3183594","0.3154297","-0.61035156","-38.78125","21.65625","120.65625"
"1569162779633","456","-1.6640625","-0.18847656","-0.703125","-62.15625","92.34375","168.125"
"1569162779752","457","-0.64160156","0.0029296875","-0.0546875","-52.375","-31.21875","-53.0"
"1569162779902","458","-0.47851562","0.046875","-0.22851562","40.5","-85.90625","-181.09375"
"1569162779962","459","-1.203125","0.26757812","-0.49023438","74.5","-92.59375","-305.75"
"1569162780052","460","-1.2753906","0.8955078","-0.69140625","34.65625","-67.09375","-279.875"
"1569162780142","461","-1.6386719","0.23046875","-0.13574219","115.09375","17.625","49.0625"
"1569162780232","462","-0.97265625","-0.091796875","-0.6699219","13.84375","67.0625","-38.15625"
"1569162780352","463","-0.99121094","-0.20019531","-0.46679688","-15.875","43.1875","21.15625"
"1569162780442","464","-0.96191406","0.047851562","-0.28320312","-32.4375","32.40625","76.875"
"1569162780532","465","-0.93359375","0.21777344","-0.35839844","-29.3125","30.625","74.625"
"1569162780652","466","-0.9589844","0.16210938","-0.3642578","-32.25","30.0","59.625"
"1569162780742","467","-1.1650391","0.18457031","-0.6542969","-22.0625","33.8125","121.09375"
"1569162780831","468","-2.0","0.044921875","-0.16015625","-96.5","69.375","147.75"
"1569162780951","469","-0.65234375","0.46484375","-0.5957031","-32.0","53.875","136.03125"
"1569162781042","470","-0.3671875","0.3642578","-0.16992188","24.53125","-99.5625","-166.15625"
"1569162781134","471","-0.9501953","0.18847656","-0.17382812","33.6875","-108.40625","-316.0"
"1569162781253","472","-1.3583984","0.9433594","-0.81152344","82.3125","-65.8125","-291.65625"
"1569162781342","473","-1.6914062","0.18359375","-0.17871094","99.84375","12.6875","75.4375"
"1569162781431","474","-0.9394531","0.09375","-0.49023438","11.03125","66.15625","0.53125"
"1569162781552","475","-0.9824219","-0.14941406","-0.36132812","-12.09375","48.09375","38.5"
"1569162781641","476","-0.95410156","-0.20605469","-0.2548828","-24.90625","32.28125","60.34375"
"1569162781731","477","-0.9433594","0.23925781","-0.38183594","-21.1875","33.25","82.0625"
"1569162781851","478","-1.0087891","0.11328125","-0.49023438","-31.15625","30.0","58.40625"
"1569162781941","479","-1.2304688","0.23828125","-0.52441406","-24.0625","29.78125","127.5"
"1569162782031","480","-1.9511719","0.0087890625","-0.3388672","-108.78125","68.21875","155.5625"
"1569162782151","481","-0.5800781","0.3251953","-0.15332031","-41.6875","13.21875","19.8125"
"1569162782241","482","-0.359375","0.123046875","-0.171875","54.125","-63.8125","-170.71875"
"1569162782331","483","-1.0947266","0.25097656","-0.38085938","33.84375","-87.34375","-308.4375"
"1569162782452","484","-1.2626953","0.96777344","-0.75097656","90.75","-44.3125","-260.9375"
"1569162782571","485","-0.68847656","1.1357422","-0.58691406","86.09375","33.84375","97.6875"
"1569162782631","486","-0.8486328","1.0644531","-0.48632812","-15.59375","93.25","177.34375"
"1569162782751","487","-1.0615234","0.0625","-0.29296875","-28.09375","40.28125","33.625"
"1569162782841","488","-0.9736328","-0.07714844","-0.26464844","-28.6875","32.53125","68.96875"
"1569162782931","489","-0.9238281","0.10644531","-0.38085938","-39.3125","26.84375","57.65625"
"1569162783051","490","-0.98046875","0.107421875","-0.44433594","-44.15625","24.875","57.125"
"1569162783141","491","-1.1328125","0.20898438","-0.47070312","1.4375","23.90625","126.21875"
"1569162783232","492","-1.9248047","-0.020507812","-0.1640625","-80.71875","44.0","151.34375"
"1569162783352","493","-0.64746094","0.4404297","-0.52734375","-43.65625","76.65625","148.59375"
"1569162783444","494","-0.3388672","0.15527344","-0.13476562","28.1875","-68.25","-152.78125"
"1569162783531","495","-0.94921875","0.21582031","-0.27246094","76.09375","-102.75","-283.9375"
"1569162783652","496","-1.4462891","0.7832031","-0.7011719","62.90625","-73.3125","-301.78125"
"1569162783742","497","-0.6582031","1.2285156","-0.48242188","37.8125","21.96875","66.09375"
"1569162783832","498","-1.0058594","1.0976562","-0.21875","24.15625","58.34375","166.375"
"1569162783922","499","-1.0058594","0.28320312","-0.07714844","-35.15625","40.15625","40.5"
"1569162784042","500","-0.953125","-0.11621094","-0.30371094","-53.53125","24.71875","17.375"
"1569162784132","501","-0.9970703","0.08105469","-0.33398438","-34.75","31.25","73.59375"
"1569162784223","502","-0.94140625","0.11328125","-0.46191406","-38.78125","31.125","66.5625"
"1569162784342","503","-1.2158203","0.2548828","-0.5058594","-17.15625","34.53125","125.84375"
"1569162784432","504","-1.9589844","0.026367188","-0.18359375","-102.625","53.03125","139.28125"
"1569162784522","505","-0.6904297","0.60058594","-0.44628906","-12.15625","86.09375","198.84375"
"1569162784642","506","-0.38476562","0.3544922","-0.115234375","43.625","-67.09375","-144.71875"
"1569162784732","507","-0.8652344","0.34472656","-0.059570312","15.3125","-107.75","-306.15625"
"1569162784853","508","-1.5322266","1.0175781","-0.65527344","94.71875","-87.1875","-312.34375"
"1569162784943","509","-0.68359375","1.3720703","-0.7158203","75.375","49.65625","100.375"
"1569162785031","510","-0.7675781","0.7558594","-0.49023438","-8.875","82.6875","128.90625"
"1569162785123","511","-1.0546875","0.029296875","-0.36328125","-2.8125","46.625","36.90625"
"1569162785243","512","-0.96191406","-0.1484375","-0.27734375","-41.28125","33.8125","62.71875"
"1569162785332","513","-0.91796875","0.1875","-0.3623047","-25.28125","33.4375","78.46875"
"1569162785422","514","-0.96484375","0.1953125","-0.41992188","-38.28125","26.96875","60.03125"
"1569162785541","515","-1.2412109","0.24316406","-0.46875","-7.65625","25.4375","121.25"
"1569162785632","516","-2.0","0.005859375","-0.21679688","-84.375","55.40625","163.8125"
"1569162785722","517","-0.6035156","0.46875","-0.35546875","-58.59375","33.0","95.25"
"1569162785842","518","-0.38671875","0.17578125","-0.19042969","55.71875","-87.90625","-166.15625"
"1569162785931","519","-0.9941406","0.29589844","-0.20410156","35.1875","-114.53125","-308.84375"
"1569162786022","520","-1.4111328","0.8642578","-0.71875","82.4375","-87.90625","-302.1875"
"1569162786142","521","-1.4853516","0.30664062","-0.48632812","70.90625","48.625","58.59375"
"1569162786232","522","-0.7675781","0.41503906","-0.3720703","22.5","70.46875","60.90625"
"1569162786352","523","-1.0732422","0.021484375","-0.32714844","-29.5625","50.8125","32.5625"
"1569162786442","524","-0.95996094","-0.12792969","-0.29101562","-55.9375","27.8125","35.1875"
"1569162786532","525","-0.9589844","0.13769531","-0.3203125","-22.46875","31.28125","83.46875"
"1569162786621","526","-0.9111328","0.14941406","-0.37402344","-24.5","29.28125","79.40625"
"1569162786742","527","-1.4150391","0.20019531","-0.63183594","-39.625","35.75","129.0625"
"1569162786832","528","-1.7490234","-0.049804688","-0.41503906","-122.09375","92.5625","161.0625"
"1569162786922","529","-0.56152344","-0.40722656","-0.037109375","-16.5","12.3125","-29.96875"
"1569162787042","530","-0.46289062","0.17675781","-0.19042969","120.03125","-88.03125","-161.15625"
"1569162787131","531","-1.2265625","0.43164062","-0.31933594","7.0625","-106.28125","-320.8125"
"1569162787223","532","-1.4345703","1.015625","-0.53808594","18.46875","-70.9375","-257.875"
"1569162787342","533","-1.2285156","0.39648438","-0.91503906","77.4375","79.40625","91.21875"
"1569162787432","534","-0.88964844","0.020507812","-0.6142578","-1.34375","90.3125","-6.1875"
"1569162787522","535","-0.9296875","-0.18945312","-0.29589844","-29.5","46.3125","52.78125"
"1569162787642","536","-0.953125","0.034179688","-0.34765625","-31.03125","33.8125","65.53125"
"1569162787762","537","-0.90234375","0.18945312","-0.42871094","-35.40625","26.21875","46.125"
"1569162787822","538","-1.0771484","0.051757812","-0.36132812","-34.6875","28.84375","53.09375"
"1569162788002","539","-1.2744141","0.24707031","-0.62402344","-37.84375","34.21875","139.5625"
"1569162788032","540","-1.9755859","-0.17480469","-0.45214844","-72.90625","93.78125","157.15625"
"1569162788122","541","-0.6347656","-0.21386719","0.10546875","-40.40625","-26.3125","-66.84375"
"1569162788302","542","-0.41308594","0.1171875","-0.1328125","45.21875","-77.34375","-200.5625"
"1569162788332","543","-1.2382812","0.22753906","-0.3232422","10.0625","-73.25","-341.875"
"1569162788422","544","-1.4296875","1.0976562","-0.7753906","88.125","-62.09375","-253.8125"
"1569162788542","545","-1.3837891","-0.828125","-0.36328125","73.96875","-7.28125","-246.78125"
"1569162788632","546","-0.9423828","0.040039062","-0.73046875","13.53125","108.625","-26.5"
"1569162788723","547","-1.0292969","-0.14257812","-0.3515625","-4.28125","40.5625","32.40625"
"1569162788842","548","-0.95996094","-0.044921875","-0.27148438","-32.90625","31.1875","65.53125"
"1569162788932","549","-0.96972656","0.08105469","-0.40820312","-27.0","32.9375","72.90625"
"1569162789113","550","-0.95996094","0.22070312","-0.4248047","-27.90625","30.0","75.59375"
"1569162789143","551","-1.1923828","0.24902344","-0.6298828","-27.65625","30.625","114.84375"
"1569162789233","552","-2.0","0.02734375","-0.32421875","-106.15625","55.78125","153.0"
"1569162789352","553","-0.5517578","0.49902344","-0.6035156","-39.4375","48.875","140.375"
"1569162789472","554","-0.3544922","0.28320312","-0.20214844","59.1875","-99.625","-162.3125"
"1569162789532","555","-1.0380859","0.50390625","-0.64941406","60.90625","-100.0625","-283.21875"
"1569162789653","556","-1.4238281","1.0546875","-0.8457031","70.96875","-46.9375","-266.125"
"1569162789742","557","-0.76953125","1.1845703","-0.46484375","36.53125","51.5625","99.40625"
